"Time (s)","Linear Acceleration x (m/s^2)","Linear Acceleration y (m/s^2)","Linear Acceleration z (m/s^2)"
5.996297100E-2,-2.341379821E-1,7.215312123E-2,-9.274606705E-1
7.009480700E-2,-1.224469244E-1,4.159161448E-2,-4.113340378E-1
8.022664300E-2,2.054154873E-2,-2.835217118E-2,9.545993805E-2
9.035847900E-2,2.082309127E-2,-6.264799833E-2,1.482830048E-1
1.005208320E-1,-2.443897724E-2,-5.230104923E-2,-4.030418396E-2
1.106831860E-1,-6.544402242E-2,4.970818758E-3,-1.876792908E-1
1.208150220E-1,-8.337146044E-2,8.019477129E-2,-1.935768127E-1
1.309773750E-1,-8.266869187E-2,1.161409914E-1,-1.307554245E-1
1.411397290E-1,-5.117169023E-2,1.058043540E-1,-7.943820953E-2
1.513020820E-1,-2.312448621E-2,8.162897825E-2,-8.410263062E-2
1.614644360E-1,-1.559895277E-2,3.709742427E-2,-9.137821198E-2
1.716267890E-1,-1.787576079E-2,-1.989111304E-2,-1.079711914E-1
1.817891430E-1,-2.213796973E-2,-5.326846242E-2,-1.147041321E-1
1.919514970E-1,-1.460546255E-2,-6.212010980E-2,-1.171522141E-1
2.021138500E-1,-1.161190867E-2,-6.426516175E-2,-1.171903610E-1
2.122762040E-1,2.593594790E-2,-4.334044456E-2,-7.616901398E-2
2.224385570E-1,4.095238447E-2,-1.195386052E-2,-4.235076904E-2
2.326009110E-1,4.139691591E-2,1.579645276E-2,-2.637863159E-2
2.427632640E-1,2.740713954E-2,3.756740689E-2,-1.584625244E-2
2.529561350E-1,1.624163985E-2,3.305074573E-2,-2.914142609E-2
2.631184890E-1,-2.226164937E-2,1.508259773E-2,-3.715419769E-2
2.732808420E-1,-2.642822266E-2,-1.137489080E-2,-2.384376526E-2
2.834431960E-1,-1.642629504E-2,-2.063578367E-2,-7.203674316E-2
2.936055490E-1,-1.885578036E-2,-2.228915691E-2,-9.849166870E-2
3.037679030E-1,-2.604264021E-2,1.071986556E-2,1.049995422E-1
3.139302560E-1,-6.015118957E-2,2.057561278E-2,9.920120239E-3
3.240926100E-1,-4.610353708E-2,3.264737129E-2,-2.050619125E-1
3.342549630E-1,1.670476794E-2,2.319148183E-2,-2.279272079E-1
3.444173170E-1,3.511631489E-2,1.601007581E-2,-2.161693573E-2
3.545796700E-1,-1.003786922E-2,1.305511594E-2,3.005409241E-2
3.647420240E-1,-2.150562406E-2,-5.311340094E-3,-7.133769989E-2
3.749043770E-1,4.739820957E-3,1.172339916E-2,-5.951404572E-2
3.850667310E-1,9.028971195E-3,2.626594901E-2,2.431678772E-2
3.952290840E-1,8.644729853E-3,4.964932799E-2,7.527828217E-2
4.053914380E-1,3.526359797E-3,6.260919571E-2,6.384468079E-2
4.155537910E-1,5.425721407E-3,5.160102248E-2,3.174686432E-2
4.257161450E-1,1.905798912E-2,5.306735635E-2,9.942054749E-3
4.359090160E-1,3.713899851E-2,3.384864330E-2,3.822898865E-2
4.460713700E-1,3.813934326E-2,1.469999552E-2,1.008062363E-1
4.562337230E-1,2.036246657E-2,-7.307499647E-3,4.422187805E-2
4.663960770E-1,-6.273925304E-3,1.286536455E-3,-7.898426056E-2
4.765584300E-1,-2.024754882E-2,-1.624286175E-3,-9.804344177E-2
4.867207840E-1,-1.738905907E-2,-1.526999474E-2,-2.979946136E-2
4.968831370E-1,-1.467981935E-2,-1.210290194E-2,1.337242126E-2
5.070454910E-1,-2.868065238E-2,-2.109202743E-2,6.058692932E-3
5.172078440E-1,-5.428713560E-2,-1.333749294E-2,-4.341602325E-2
5.273701980E-1,-5.335628986E-2,2.064704895E-3,-6.123161316E-2
5.375325510E-1,-4.290881753E-2,1.326626539E-2,-4.321193695E-2
5.476949050E-1,-3.016224504E-2,3.385376930E-2,-4.458427429E-3
5.578572580E-1,-1.280435920E-2,2.566587925E-2,5.266189575E-3
5.680196120E-1,-2.843350172E-3,1.958379149E-2,1.959705353E-2
5.782124830E-1,-1.422095299E-2,1.608416438E-2,3.368663788E-2
5.883748360E-1,-1.585432887E-2,1.965504885E-2,5.451297760E-2
5.985371900E-1,-1.957315207E-2,3.485679626E-2,7.261943817E-2
6.086995430E-1,-6.515949965E-3,2.822041512E-2,3.132820129E-2
6.188618970E-1,-7.784813643E-3,5.027344823E-2,-3.283691406E-2
6.290242500E-1,-1.123592257E-2,3.019386530E-2,-7.456779480E-2
6.391866040E-1,-1.921653748E-2,1.113915443E-2,-9.661865234E-2
6.493489570E-1,-2.918738127E-2,-2.304673195E-3,-7.089996338E-2
6.595113110E-1,-1.062285900E-2,-1.793432236E-2,3.482437134E-2
6.696736640E-1,3.298509121E-2,-1.289665699E-2,1.668052673E-1
6.798360180E-1,1.643678546E-2,1.151281595E-2,1.024799347E-1
6.899983720E-1,-1.419728994E-2,4.210537672E-2,1.358222961E-2
7.001912430E-1,-9.240210056E-3,5.653631687E-2,7.745456696E-2
7.103535960E-1,-5.012217164E-2,7.343500853E-2,8.802700043E-2
7.205159500E-1,-1.139025390E-1,6.893450022E-2,-6.013107300E-2
7.306783030E-1,-1.485282779E-1,7.780182362E-2,-4.275445938E-1
7.408406570E-1,1.860389113E-2,3.570073843E-2,-3.126440048E-1
7.510030100E-1,2.279656827E-1,-4.959803820E-2,5.754766464E-1
7.611653640E-1,1.558980644E-1,-7.822233438E-2,4.130573273E-1
7.713277170E-1,2.267873287E-2,-5.401766300E-2,-1.845769882E-1
7.814900710E-1,-6.206172705E-2,-2.055644989E-2,-4.034252167E-1
7.916524240E-1,-8.531621099E-2,-4.379808903E-3,-1.714067459E-1
8.018147780E-1,-1.895231009E-2,-1.196837425E-2,1.248168945E-1
8.119771310E-1,3.175434470E-2,-6.780982018E-3,2.030057907E-1
8.221394850E-1,2.687633038E-3,2.295452356E-2,1.191749573E-1
8.323018380E-1,-5.183157325E-2,7.164829969E-2,1.562500000E-2
8.424641920E-1,-9.899404645E-2,1.369459033E-1,-1.502323151E-2
8.526265450E-1,-1.179545522E-1,1.697446108E-1,-2.183914185E-4
8.628194160E-1,-9.189689159E-2,1.564604640E-1,2.877807617E-2
8.729817700E-1,-6.418457627E-2,1.156578064E-1,4.799842834E-2
8.831441230E-1,-1.350244880E-2,5.889183283E-2,7.166194916E-2
8.933064770E-1,3.619366884E-2,-4.908025265E-3,6.417942047E-2
9.034688310E-1,5.632558465E-2,-3.344398737E-2,3.536796570E-2
9.136311840E-1,5.190107226E-2,-4.173344374E-2,3.052330017E-2
9.237935380E-1,3.102526069E-2,-4.180288315E-2,2.091121674E-2
9.339558910E-1,-9.681284428E-4,-3.106999397E-2,1.138114929E-2
9.441182450E-1,-6.067097187E-3,7.682859898E-3,4.232883453E-2
9.542805980E-1,3.419458866E-3,1.981765032E-2,6.813049316E-2
9.644429520E-1,1.275828481E-2,2.694058418E-2,8.414936066E-2
9.746053050E-1,2.874523401E-3,2.202188969E-2,6.678295135E-2
9.847676590E-1,-7.093548775E-3,3.133392334E-2,6.585502625E-2
9.949300120E-1,-2.162560821E-2,1.682859659E-2,7.676219940E-2
1.005092366E0,-1.678204536E-2,9.264767170E-3,7.550334930E-2
1.015254719E0,-1.724559069E-2,1.369726658E-2,-9.810161591E-2
1.025417073E0,-3.534579277E-2,3.532624245E-2,1.095495224E-1
1.035609944E0,-5.033433437E-2,6.092303991E-2,8.847141266E-2
1.045772297E0,-4.287883639E-2,5.276793242E-2,-7.594013214E-2
1.055934651E0,1.947787404E-2,3.375136852E-2,-1.074409485E-1
1.066097004E0,3.325021267E-2,4.190981388E-2,-6.281852722E-2
1.076259358E0,2.728998661E-2,2.341508865E-2,1.643466949E-2
1.086421711E0,-9.416848421E-3,2.527749538E-2,5.640411377E-2
1.096584065E0,-2.416592836E-2,3.589266539E-2,2.715206146E-2
1.106746418E0,-2.962648869E-3,6.065988541E-2,4.345512390E-2
1.116908772E0,6.109654903E-3,8.038568497E-2,9.722328186E-2
1.127071125E0,-1.276075840E-3,9.206700325E-2,1.240243912E-1
1.137233479E0,-6.100416183E-3,8.641701937E-2,9.595012665E-2
1.147395832E0,8.743107319E-4,6.442296505E-2,7.311820984E-2
1.157588704E0,7.602095604E-3,2.918195724E-2,5.786323547E-2
1.167751057E0,2.154737711E-3,-6.991028786E-4,6.875991821E-2
1.177913411E0,-5.656272173E-3,-2.165853977E-3,3.817558289E-3
1.188075764E0,-1.317071915E-2,3.217935562E-3,-6.001949310E-2
1.198238118E0,-2.265244722E-2,6.544351578E-3,-5.644702911E-2
1.208400471E0,-1.285365224E-2,-6.273150444E-3,1.557350159E-2
1.218562825E0,-2.465358377E-2,-1.675760746E-2,4.375076294E-2
1.228725178E0,-3.630006313E-2,-3.838062286E-3,3.834152222E-2
1.238887532E0,-5.021557212E-2,4.100382328E-3,1.408576965E-2
1.249049885E0,-5.000004172E-2,2.881234884E-2,6.821632385E-3
1.259212239E0,-5.448436737E-2,3.432798386E-2,1.386165619E-2
1.269374592E0,-5.395728350E-2,4.176515341E-2,2.785778046E-2
1.279536946E0,-4.604044557E-2,4.877614975E-2,5.580902100E-2
1.289699299E0,-1.433718204E-2,3.852760792E-2,7.616615295E-2
1.299892170E0,-1.935839653E-3,3.524810076E-2,5.121040344E-2
1.310054524E0,-6.642341614E-3,3.915667534E-2,-2.301502228E-2
1.320216877E0,-4.211515188E-2,4.350322485E-2,-8.403968811E-2
1.330379231E0,-5.068582296E-2,2.962213755E-2,-7.065868378E-2
1.340541584E0,-1.860380173E-2,2.568984032E-2,3.710460663E-2
1.350703938E0,1.967567205E-2,2.806007862E-2,1.427907944E-1
1.360866291E0,1.472863555E-2,3.599375486E-2,7.871437073E-2
1.371028645E0,1.001742482E-2,3.638511896E-2,-1.717472076E-2
1.381190998E0,5.037307739E-3,5.178236961E-2,5.175209045E-2
1.391353352E0,-1.722997427E-2,5.052775145E-2,1.003017426E-1
1.401515706E0,-6.778812408E-2,6.788748503E-2,5.824756622E-2
1.411678059E0,-1.074110568E-1,6.892406940E-2,-2.695226669E-1
1.421840413E0,-5.589628220E-2,4.436421394E-2,-4.768486023E-1
1.432002766E0,1.307241917E-1,-2.018821239E-2,3.555498123E-1
1.442195637E0,1.437564492E-1,-4.639458656E-2,5.744152069E-1
1.452357991E0,4.731801152E-2,-2.559381723E-2,-1.278886795E-1
1.462520344E0,-3.346264362E-2,-7.308661938E-3,-3.007717133E-1
1.472682698E0,-1.010158360E-1,1.990634203E-2,-1.750001907E-1
1.482845051E0,-6.836396456E-2,6.741762161E-3,2.165508270E-2
1.493007405E0,1.683026552E-3,-1.410245895E-4,8.485031128E-2
1.503169758E0,2.032059431E-2,-2.868115902E-3,9.027099609E-2
1.513332112E0,-3.186437488E-2,5.071973801E-2,3.408432007E-2
1.523494465E0,-9.334713221E-2,9.612053633E-2,-3.751373291E-2
1.533656819E0,-1.164458990E-1,1.319985986E-1,-2.258491516E-2
1.543819172E0,-9.949740767E-2,1.528523564E-1,3.465080261E-2
1.553981526E0,-6.213539839E-2,1.265019774E-1,8.623313904E-2
1.564143879E0,-1.928189397E-2,7.656729221E-2,1.131935120E-1
1.574306233E0,3.158381581E-2,2.908557653E-2,1.159830093E-1
1.584468586E0,4.327437282E-2,-9.502828121E-3,9.263896942E-2
1.594661457E0,6.157097220E-2,-2.070456743E-2,4.598426819E-2
1.604823811E0,5.814817548E-2,-2.851337194E-2,1.891994476E-2
1.614986164E0,3.369513154E-2,-4.358649254E-3,2.058887482E-2
1.625148518E0,2.642813325E-2,-2.019405365E-4,3.167724609E-2
1.635310872E0,2.194535732E-2,1.550471783E-2,4.487895966E-2
1.645473225E0,1.775342226E-2,4.507493973E-2,4.842853546E-2
1.655635579E0,2.013802528E-3,5.306744576E-2,4.014110565E-2
1.665797932E0,-2.982884645E-2,5.648016930E-2,1.308917999E-2
1.675960286E0,-4.896470904E-2,6.027197838E-2,5.553245544E-3
1.686122639E0,-5.323168635E-2,4.088491201E-2,4.302310944E-2
1.696284993E0,-4.851350188E-2,2.421450615E-2,-8.355903625E-2
1.706447346E0,-2.398449183E-2,2.259612083E-2,1.490592957E-2
1.716609700E0,-4.476678371E-2,3.501701355E-2,1.181058884E-1
1.726772053E0,-6.695148349E-2,4.656404257E-2,-4.039096832E-2
1.736934407E0,-3.380566835E-2,4.679346085E-2,-1.414699554E-1
1.747127278E0,3.248101473E-2,4.842305183E-2,-1.037378311E-1
1.757289631E0,4.536324739E-2,3.383696079E-2,-1.937103271E-2
1.767451985E0,1.533263922E-2,4.248851538E-2,5.161476135E-2
1.777614338E0,-2.357751131E-2,4.309570789E-2,1.024818420E-2
1.787776692E0,-2.626672387E-2,4.129242897E-2,-4.242897034E-3
1.797939045E0,1.941055059E-3,5.885750055E-2,5.717182159E-2
1.808101399E0,3.430038691E-3,7.590585947E-2,1.292943954E-1
1.818263752E0,-1.904875040E-2,8.956271410E-2,1.173439026E-1
1.828426106E0,-3.185525537E-2,8.139759302E-2,5.598163605E-2
1.838588459E0,-1.829653978E-2,6.887841225E-2,2.652454376E-2
1.848750813E0,6.933033466E-3,4.538762569E-2,7.549858093E-2
1.858913166E0,-1.401215792E-3,2.676212788E-2,7.864189148E-2
1.869075520E0,-9.400278330E-3,3.375864029E-2,2.266597748E-2
1.879237873E0,-1.701498032E-2,3.064137697E-2,-4.896259308E-2
1.889400227E0,-5.336552858E-3,3.268277645E-2,-5.542087555E-2
1.899562581E0,-3.291189671E-3,2.604383230E-2,-3.103160858E-2
1.909755452E0,-2.494111657E-2,3.891539574E-2,9.514808655E-3
1.919917805E0,-4.398831725E-2,4.223394394E-2,1.618671417E-2
1.930080159E0,-6.496596336E-2,4.546779394E-2,-5.527496338E-3
1.940242512E0,-4.981958866E-2,5.857542157E-2,-1.502323151E-2
1.950404866E0,-3.707218170E-2,5.768564343E-2,-3.025054932E-3
1.960567219E0,-2.662518620E-2,5.689331889E-2,4.187583923E-2
1.970729573E0,-1.170894504E-2,4.877296090E-2,6.704521179E-2
1.980891926E0,2.901256084E-3,4.475250840E-2,6.336975098E-2
1.991054280E0,3.026425838E-3,4.524508119E-2,2.902698517E-2
2.001216633E0,-1.117777824E-2,6.495174766E-2,-2.128505707E-2
2.011378987E0,-4.611298442E-2,5.658224225E-2,-6.363964081E-2
2.021541340E0,-5.885350704E-2,5.146670341E-2,-8.631229401E-2
2.031703694E0,-4.746565223E-2,3.065389395E-2,-4.468154907E-2
2.041866047E0,6.055891514E-3,3.136041760E-2,7.427978516E-2
2.052028401E0,2.763047814E-2,2.648493648E-2,1.271858215E-1
2.062190754E0,6.217807531E-3,3.468987346E-2,3.737449646E-2
2.072383625E0,-1.742470264E-2,5.228099227E-2,-2.001190186E-2
2.082545979E0,-2.461433411E-2,6.615445018E-2,-3.220558167E-3
2.092708332E0,-6.801149249E-2,7.850795984E-2,1.562213898E-2
2.102870686E0,-1.434765458E-1,9.628275037E-2,-2.618503571E-1
2.113033039E0,-1.324338913E-1,8.136701584E-2,-4.906768799E-1
2.123195393E0,1.008624732E-1,3.995043039E-2,9.583663940E-2
2.133357747E0,2.271020412E-1,-7.525891066E-3,9.186315536E-1
2.143520100E0,9.513866901E-2,-3.508597612E-3,4.271898270E-1
2.153682454E0,-5.903840065E-3,3.670305014E-2,-1.479616165E-1
2.163844807E0,-1.105169356E-1,7.782724500E-2,-6.818561554E-1
2.174007161E0,-8.778834343E-2,7.180637121E-2,-4.826631546E-1
2.184169514E0,3.837680817E-2,1.236557961E-2,9.500026703E-2
2.194331868E0,6.626212597E-2,-4.828208685E-2,3.403625488E-1
2.204494221E0,2.891305089E-2,-6.029614806E-2,2.074279785E-1
2.214687092E0,-2.580738068E-2,6.367653608E-3,5.355262756E-2
2.224849446E0,-8.090499043E-2,8.658659458E-2,7.843971252E-3
2.235011799E0,-1.049161553E-1,1.647630632E-1,3.165340424E-2
2.245174153E0,-1.025148332E-1,1.942200065E-1,7.689857483E-2
2.255336506E0,-7.630780339E-2,1.930375695E-1,1.004762650E-1
2.265498860E0,-4.798352718E-2,1.510021091E-1,8.575439453E-2
2.275661213E0,-2.942538261E-2,8.252394199E-2,4.246711731E-2
2.285823567E0,-6.213992834E-3,1.650765538E-2,1.129341125E-2
2.295985920E0,-2.135306597E-3,-9.221673012E-3,-5.471229553E-3
2.306148274E0,-2.017915249E-4,-2.581912279E-2,-3.884029388E-2
2.316310627E0,6.844371557E-3,-1.143771410E-2,-3.866291046E-2
2.326472981E0,1.875871420E-2,1.270925999E-2,6.868362427E-3
2.336635334E0,2.091416717E-2,4.147624969E-2,6.171607971E-2
2.346797688E0,1.102104783E-2,6.505361199E-2,6.141662598E-2
2.356960041E0,-1.381754875E-3,7.639512420E-2,4.202270508E-2
2.367152913E0,-3.747794032E-2,8.309820294E-2,4.658031464E-2
2.377315266E0,-5.390912294E-2,5.896475911E-2,5.594825745E-2
2.387477620E0,-5.117070675E-2,3.955343366E-2,3.181362152E-2
2.397639973E0,-3.666597605E-2,3.870987892E-2,-6.070232391E-2
2.407802327E0,-3.008192778E-2,4.503628612E-2,1.365070343E-1
2.417964680E0,-5.123224854E-2,5.739939213E-2,8.655929565E-2
2.428127034E0,-5.547434092E-2,6.471660733E-2,-1.419839859E-1
2.438289387E0,1.394337416E-2,6.192994118E-2,-2.053804398E-1
2.448451741E0,5.396246910E-2,5.145302415E-2,-5.575180054E-3
2.458614094E0,8.016228676E-4,4.555612803E-2,5.343437195E-2
2.468776448E0,-4.507988691E-2,4.559242725E-2,-2.077293396E-2
2.478938801E0,-3.370538354E-2,4.778477550E-2,-1.083850861E-2
2.489131672E0,-1.767355204E-2,8.102479577E-2,5.079364777E-2
2.499294026E0,-8.802652359E-3,1.088072658E-1,8.302021027E-2
2.509456379E0,4.518926144E-3,1.309697926E-1,1.028289795E-1
2.519618733E0,-3.707140684E-3,1.145325899E-1,7.982063293E-2
2.529781086E0,1.205256581E-2,1.060156226E-1,5.725955963E-2
2.539943440E0,2.275255322E-2,6.252712011E-2,7.764625549E-2
2.550105793E0,2.602788806E-2,3.600844741E-2,1.023035049E-1
2.560268147E0,1.743319631E-2,3.480443358E-2,3.898715973E-2
2.570430500E0,-2.494424582E-3,2.813085914E-2,-4.687404633E-2
2.580592854E0,-2.172222733E-2,3.606534004E-2,-8.389663696E-2
2.590755207E0,-1.684182882E-2,4.234650731E-2,-3.990936279E-2
2.600917561E0,-3.107419610E-2,3.935065866E-2,1.746082306E-2
2.611110432E0,-4.740035534E-2,3.595232964E-2,2.660751343E-2
2.621272786E0,-6.112599373E-2,3.713631630E-2,4.826545715E-3
2.631435139E0,-6.280815601E-2,4.844123125E-2,-2.122116089E-2
2.641597493E0,-5.958113074E-2,4.365724325E-2,-1.135253906E-2
2.651759846E0,-5.160984397E-2,4.393541813E-2,1.251506805E-2
2.661922200E0,-4.853504896E-2,4.179489613E-2,3.117275238E-2
2.672084553E0,-3.359016776E-2,3.689795732E-2,4.253864288E-2
2.682246907E0,-1.408848166E-2,5.790278316E-2,7.027912140E-2
2.692409260E0,4.497468472E-4,6.408998370E-2,5.014991760E-2
2.702571614E0,-1.830172539E-2,7.708755136E-2,-7.411003113E-3
2.712733967E0,-4.140773416E-2,6.637799740E-2,-4.747581482E-2
2.722896321E0,-4.490536451E-2,5.633342266E-2,-8.442211151E-2
2.733058674E0,-4.316744208E-2,3.990238905E-2,-7.342052460E-2
2.743251545E0,1.181602478E-3,3.112435341E-2,8.381843567E-3
2.753413899E0,4.674378037E-2,1.954582334E-2,1.240987778E-1
2.763576252E0,3.895613551E-2,2.576160431E-2,9.582138062E-2
2.773738606E0,-4.295259714E-3,5.987560749E-2,-1.693916321E-2
2.783900959E0,-2.810361981E-2,7.533898950E-2,-7.022857666E-3
2.794063313E0,-4.495719075E-2,7.265940309E-2,6.162261963E-2
2.804225666E0,-1.023515761E-1,7.708948851E-2,1.310920715E-2
2.814388020E0,-1.527220011E-1,9.161561728E-2,-4.033403397E-1
2.824550373E0,-2.460870147E-2,6.446501613E-2,-3.813467026E-1
2.834712727E0,1.952048242E-1,1.915940642E-2,3.970766068E-1
2.844875081E0,1.905809045E-1,-2.240827680E-2,7.481422424E-1
2.855037434E0,4.228365421E-2,2.740949392E-3,9.955883026E-2
2.865199788E0,-6.015339494E-2,4.317286611E-2,-4.014339447E-1
2.875362141E0,-1.730655730E-1,7.073307037E-2,-6.123876572E-1
2.885524495E0,-9.151288867E-2,7.361596823E-2,-1.847639084E-1
2.895686848E0,3.484651446E-2,2.389141917E-2,2.818861008E-1
2.905879719E0,2.939596772E-2,-1.005455852E-2,3.048229218E-1
2.916042073E0,-1.979672909E-2,8.720844984E-3,1.126184464E-1
2.926204426E0,-7.226938009E-2,7.063651085E-2,-2.874088287E-2
2.936366780E0,-1.058683097E-1,1.354947090E-1,-2.142333984E-2
2.946529133E0,-1.178514659E-1,1.690725386E-1,4.083633423E-2
2.956691487E0,-1.009948850E-1,1.578122675E-1,3.367519379E-2
2.966853840E0,-4.836654663E-2,1.206307411E-1,3.373718262E-2
2.977016194E0,-1.756724715E-2,9.337446094E-2,3.141880035E-2
2.987178547E0,1.173287630E-3,5.901598930E-2,2.432441711E-2
2.997340901E0,1.271829009E-2,9.807139635E-3,5.073547363E-4
3.007503254E0,-6.486713886E-3,3.117650747E-3,-3.757572174E-2
3.017665608E0,-3.794640303E-3,1.062378287E-2,-3.251075745E-2
3.027827961E0,-1.042386889E-2,2.782407403E-2,1.792240143E-2
3.037990315E0,2.066880465E-3,5.220252275E-2,5.146789551E-2
3.048152668E0,1.900830865E-2,5.737408996E-2,5.143451691E-2
3.058315022E0,1.406255364E-2,6.491416693E-2,4.423809052E-2
3.068507893E0,-5.458474159E-3,5.333334208E-2,3.705883026E-2
3.078670247E0,-2.225458622E-2,4.885229468E-2,3.469848633E-2
3.088832600E0,-3.618362546E-2,4.179784656E-2,5.383205414E-2
3.098994954E0,-3.763335943E-2,3.392753005E-2,-7.011890411E-2
3.109157307E0,-2.787375450E-2,5.250594020E-2,5.459880829E-2
3.119319661E0,-6.050390005E-2,8.676528931E-2,1.621494293E-1
3.129482014E0,-8.249545097E-2,8.671379089E-2,-3.448677063E-2
3.139644368E0,-3.991264105E-2,8.772382140E-2,-2.061414719E-1
3.149806721E0,2.089628577E-2,7.217803597E-2,-1.501817703E-1
3.159969075E0,2.805492282E-2,5.305349827E-2,3.225898743E-2
3.170131428E0,-7.848769426E-3,3.056573868E-2,2.452850342E-2
3.180293782E0,-2.688750625E-2,3.806072474E-2,-5.363845825E-2
3.190456135E0,-1.738059521E-2,6.219691038E-2,-1.460456848E-2
3.200618489E0,-3.137677908E-3,9.836435318E-2,7.332897186E-2
3.210780842E0,-1.505082846E-2,1.172494888E-1,9.819889069E-2
3.220973713E0,-1.276665926E-2,1.260303855E-1,7.310867310E-2
3.231136067E0,3.558993340E-3,1.108977199E-1,6.733608246E-2
3.241298420E0,1.485812664E-2,9.398949146E-2,6.638717651E-2
3.251460774E0,9.377807379E-3,5.617046356E-2,6.307983398E-2
3.261623127E0,1.089835167E-2,2.535122633E-2,5.742454529E-2
3.271785481E0,-9.028196335E-3,1.543134451E-2,4.478454590E-3
3.281947834E0,-1.679059863E-2,1.742362976E-2,-7.586956024E-2
3.292110188E0,-2.158775926E-2,3.171825409E-2,-7.667064667E-2
3.302272541E0,-2.378168702E-2,3.668606281E-2,2.783775330E-3
3.312434895E0,-3.058651090E-2,3.192895651E-2,4.541301727E-2
3.322597248E0,-4.920342565E-2,3.356128931E-2,2.109241486E-2
3.332759602E0,-6.063488126E-2,4.703962803E-2,-1.229381561E-2
3.342921956E0,-6.005921960E-2,6.085473299E-2,-3.327941895E-2
3.353114827E0,-7.379934192E-2,6.322675943E-2,-2.071666718E-2
3.363277180E0,-5.179467797E-2,5.851888657E-2,1.057434082E-2
3.373439534E0,-3.247800469E-2,5.102169514E-2,4.128360748E-2
3.383601887E0,-3.222516179E-2,3.828907013E-2,2.885818481E-2
3.393764241E0,-5.057099462E-2,5.869257450E-2,4.034042358E-2
3.403926594E0,-2.836605906E-2,6.446665525E-2,5.634403229E-2
3.414088948E0,-2.521729469E-2,6.779539585E-2,3.892707825E-2
3.424251301E0,-2.689266205E-2,7.350206375E-2,-1.836299896E-2
3.434413655E0,-3.104272485E-2,6.296700239E-2,-6.752490997E-2
3.444576008E0,-2.788066864E-2,4.855036736E-2,-9.684753418E-2
3.454738362E0,-2.914661169E-2,3.943115473E-2,-7.131671906E-2
3.464900715E0,-1.835086942E-2,2.359247208E-2,1.527690887E-2
3.475063069E0,3.222650290E-2,2.144277096E-2,1.310529709E-1
3.485225422E0,2.731674910E-2,3.942686319E-2,9.335708618E-2
3.495387776E0,-5.858093500E-3,5.676484108E-2,9.273529053E-3
3.505580647E0,-1.280066371E-2,7.210540771E-2,6.845283508E-2
3.515743000E0,-4.411727190E-2,8.496505022E-2,1.051387787E-1
3.525905354E0,-1.083437800E-1,9.755891562E-2,1.608848572E-3
3.536067707E0,-1.414763033E-1,8.512097597E-2,-3.884162903E-1
3.546230061E0,-2.945399284E-2,5.767488480E-2,-4.185256958E-1
3.556392414E0,1.898419559E-1,-1.459509134E-2,3.748044968E-1
3.566554768E0,1.635605991E-1,-6.485164165E-2,4.567852020E-1
3.576717122E0,3.774392605E-2,-3.894603252E-2,-1.321239471E-1
3.586879475E0,-5.007982254E-2,-1.587271690E-4,-3.426704407E-1
3.597041829E0,-9.530133009E-2,2.300405502E-2,-2.111539841E-1
3.607204182E0,-3.149849176E-2,2.752339840E-2,7.151508331E-2
3.617366536E0,2.399215102E-2,3.062146902E-2,1.717863083E-1
3.627528889E0,4.357695580E-3,5.626147985E-2,1.002159119E-1
3.637691243E0,-6.920167804E-2,1.147249937E-1,2.288055420E-2
3.647853596E0,-1.278670430E-1,1.728861928E-1,-8.071899414E-3
3.658046467E0,-1.410487890E-1,1.861499548E-1,-1.468181610E-2
3.668208821E0,-1.117745638E-1,1.727411747E-1,9.601593018E-3
3.678371174E0,-5.034637451E-2,1.201251745E-1,3.826522827E-2
3.688533528E0,-6.803184748E-3,6.115102768E-2,5.929565430E-2
3.698695881E0,2.129670978E-2,9.722292423E-3,5.156898499E-2
3.708858235E0,1.313006878E-2,-6.519675255E-3,1.559543610E-2
3.719020588E0,9.439557791E-3,-1.660281420E-2,-1.751518250E-2
3.729182942E0,-3.555864096E-3,-1.581954956E-2,-1.707839966E-2
3.739345295E0,-2.077636123E-2,7.873713970E-3,-4.862785339E-3
3.749507649E0,-1.111128926E-2,2.603304386E-2,1.185226440E-2
3.759670002E0,7.814526558E-3,3.911799192E-2,4.489517212E-2
3.769862873E0,5.129516125E-3,3.781330585E-2,5.604076385E-2
3.780025227E0,1.166802645E-2,3.891175985E-2,4.337120056E-2
3.790187581E0,3.753572702E-3,3.055024147E-2,3.093719482E-2
3.800349934E0,-2.511540055E-2,2.453535795E-2,4.004192352E-2
3.810512288E0,-2.732914686E-2,1.807230711E-2,4.393100739E-2
3.820674641E0,-3.485333920E-2,2.552062273E-2,-6.289672852E-2
3.830836995E0,-3.398570418E-2,4.727780819E-2,1.202039719E-1
3.840999348E0,-7.273915410E-2,5.623090267E-2,1.855659485E-2
3.851161702E0,-4.369628429E-2,6.536149979E-2,-1.446952820E-1
3.861324055E0,1.616650820E-2,3.776264191E-2,-1.018724442E-1
3.871486409E0,3.941175342E-2,2.981501818E-2,-4.099845886E-2
3.881648762E0,1.449024677E-2,3.768485785E-2,-2.370071411E-2
3.891841633E0,-2.203732729E-2,3.768908978E-2,-2.563381195E-2
3.902003987E0,-2.954798937E-2,5.424177647E-2,-2.759647369E-2
3.912166340E0,-8.697003126E-3,8.007842302E-2,-1.526355743E-2
3.922328694E0,9.473413229E-3,9.804296494E-2,5.361652374E-2
3.932491047E0,1.813265681E-2,9.824234247E-2,1.141309738E-1
3.942653401E0,1.258820295E-2,7.881438732E-2,9.788227081E-2
3.952815754E0,7.162213326E-3,7.371252775E-2,3.234672546E-2
3.962978108E0,-5.383312702E-3,4.074543715E-2,5.803108215E-3
3.973140461E0,-3.635823727E-3,1.789498329E-2,3.877544403E-2
3.983302815E0,1.939237118E-4,4.079222679E-3,3.797340393E-2
3.993465168E0,-2.201104164E-2,-9.803771973E-4,-3.852272034E-2
4.003627522E0,-5.312442780E-2,1.739490032E-2,-9.714889526E-2
4.013789875E0,-4.797592759E-2,3.131681681E-2,-8.142662048E-2
4.023952229E0,-3.588843346E-2,2.871263027E-2,-2.230644226E-3
4.034145100E0,-3.365108371E-2,3.735828400E-2,2.590942383E-2
4.044307454E0,-4.097613692E-2,3.351980448E-2,1.337146759E-2
4.054469807E0,-5.301648378E-2,3.699952364E-2,-8.400917053E-3
4.064632161E0,-6.013897061E-2,4.088866711E-2,-3.446960449E-2
4.074794514E0,-4.804638028E-2,5.485349894E-2,-2.929401398E-2
4.084956868E0,-4.075798392E-2,5.678576231E-2,-1.003074646E-2
4.095119221E0,-4.513594508E-2,5.135047436E-2,3.256130219E-2
4.105281575E0,-1.851838827E-2,4.294657707E-2,6.721115112E-2
4.115443928E0,-6.613880396E-3,4.809188843E-2,3.737831116E-2
4.125606282E0,-2.831390500E-2,5.771678686E-2,-3.439617157E-2
4.135768635E0,-3.298747540E-2,4.868775606E-2,-8.603858948E-2
4.145930989E0,-5.148506165E-2,4.978626966E-2,-8.950996399E-2
4.156093342E0,-3.868421912E-2,3.001487255E-2,-3.365135193E-2
4.166255696E0,1.635724306E-2,2.432429790E-2,5.655956268E-2
4.176418049E0,4.411888123E-2,2.473855019E-2,9.545993805E-2
4.186610920E0,3.124591708E-2,3.104275465E-2,2.491474152E-2
4.196773274E0,1.377969980E-2,5.842351913E-2,-8.716583252E-3
4.206935627E0,8.099406958E-3,7.648026943E-2,4.792976379E-2
4.217097981E0,-5.489096045E-2,8.486360312E-2,5.861568451E-2
4.227260334E0,-1.240172386E-1,8.866959810E-2,-1.653852463E-1
4.237422688E0,-1.279874146E-1,1.021240354E-1,-5.997095108E-1
4.247585041E0,6.511592865E-2,6.588685513E-2,-1.481685638E-1
4.257747395E0,2.117417753E-1,-3.279387951E-3,8.441572189E-1
4.267909748E0,7.760673761E-2,-4.197764397E-2,3.729591370E-1
4.278072102E0,-2.492272854E-2,6.071329117E-4,-1.376600266E-1
4.288234456E0,-1.177007556E-1,4.863065481E-2,-6.061897278E-1
4.298396809E0,-1.080775559E-1,6.304991245E-2,-4.493112564E-1
4.308559163E0,-1.192644238E-2,8.865237236E-3,5.144786835E-2
4.318721516E0,3.479522467E-2,-3.694695234E-2,2.520074844E-1
4.328883870E0,9.722739458E-3,-2.606773376E-2,1.483306885E-1
4.339046223E0,-4.690381885E-2,2.869290113E-2,-5.337715149E-3
4.349208577E0,-1.039385498E-1,1.122394204E-1,-2.704715729E-2
4.359370930E0,-1.156592667E-1,1.772360504E-1,3.505897522E-2
4.369563801E0,-1.036860347E-1,2.075889111E-1,5.882358551E-2
4.379726155E0,-6.564357877E-2,1.806171238E-1,6.104469299E-2
4.389888508E0,-1.606810093E-2,1.227685213E-1,5.130958557E-2
4.400050862E0,9.270191193E-3,6.992086768E-2,4.636955261E-2
4.410213215E0,2.271464467E-2,3.377056122E-2,2.231597900E-2
4.420375569E0,5.148380995E-3,1.812040806E-3,-2.321147919E-2
4.430537922E0,-5.102336407E-3,7.473737001E-3,-5.909633636E-2
4.440700276E0,-1.028147340E-2,7.920652628E-3,-4.710865021E-2
4.450862629E0,-1.991623640E-2,1.336163282E-2,-8.831024170E-3
4.461055500E0,-7.996201515E-3,4.751333594E-2,2.217102051E-2
4.471217854E0,8.448868990E-3,6.965330243E-2,3.634643555E-2
4.481380207E0,3.250777721E-3,7.735320926E-2,4.093360901E-2
4.491542561E0,-1.865050197E-2,7.324627042E-2,4.888534546E-3
4.501704914E0,-3.054431081E-2,7.179129124E-2,3.111171722E-2
4.511867268E0,-3.736060858E-2,4.606908560E-2,3.547763824E-2
4.522029622E0,-2.357581258E-2,3.906604648E-2,-6.188869476E-2
4.532191975E0,-3.911513090E-2,5.582910776E-2,8.786964417E-2
4.542354329E0,-7.261225581E-2,5.762261152E-2,4.344844818E-2
4.552516682E0,-7.688105106E-2,6.877869368E-2,-1.158218384E-1
4.562679036E0,-2.143341303E-2,7.171159983E-2,-1.728858948E-1
4.572841389E0,2.848145366E-2,6.200206280E-2,-9.651279449E-2
4.583003743E0,2.311447263E-2,5.058103800E-2,4.457569122E-2
4.593166096E0,-1.301348209E-2,4.791030288E-2,1.765632629E-2
4.603328450E0,-3.922542930E-2,6.153371930E-2,-4.636669159E-2
4.613521321E0,-2.454268932E-2,8.949911594E-2,1.126003265E-2
4.623683674E0,-1.246014237E-2,1.170879006E-1,9.856414795E-2
4.633846028E0,-1.723676920E-2,1.200707257E-1,1.204938889E-1
4.644008381E0,-5.652904510E-3,1.201792061E-1,7.591056824E-2
4.654170735E0,-6.358325481E-3,1.110858619E-1,2.734184265E-2
4.664333088E0,6.899744272E-3,8.384916186E-2,5.300140381E-2
4.674495442E0,2.208691835E-2,5.934101343E-2,9.693050385E-2
4.684657795E0,-3.160387278E-3,3.877726197E-2,5.018329620E-2
4.694820149E0,-2.749571204E-2,4.121333361E-2,-5.478858948E-2
4.704982502E0,-3.206601739E-2,3.930306435E-2,-7.745361328E-2
4.715144856E0,-3.411933780E-2,4.996454716E-2,-3.837871552E-2
4.725307209E0,-2.904146910E-2,5.349487066E-2,2.414703369E-3
4.735469563E0,-3.605714440E-2,5.924597383E-2,7.109642029E-3
4.745631916E0,-4.311165214E-2,4.591143131E-2,-1.196002960E-2
4.755824788E0,-3.821945190E-2,6.171739101E-2,-3.536510468E-2
4.765987141E0,-4.288488626E-2,5.906149745E-2,-2.763748169E-2
4.776149495E0,-3.552833200E-2,5.677577853E-2,1.267433167E-3
4.786311848E0,-3.317859769E-2,5.901059508E-2,3.603935242E-3
4.796474202E0,-1.442334056E-2,5.611664057E-2,1.221656799E-3
4.806636555E0,-1.719668508E-2,5.304586887E-2,3.553390503E-3
4.816798909E0,-1.035547256E-2,4.537236691E-2,1.057624817E-2
4.826961262E0,-1.524296403E-2,4.492747784E-2,2.465915680E-2
4.837123616E0,-1.754912734E-2,5.844891071E-2,5.026721954E-2
4.847285969E0,1.630038023E-3,6.897565722E-2,5.171966553E-2
4.857448323E0,-1.032739878E-2,7.198551297E-2,1.294994354E-2
4.867563978E0,-3.146800399E-2,7.049342990E-2,-3.215122223E-2
4.877726332E0,-4.012000561E-2,5.769494176E-2,-7.177352905E-2
4.887888685E0,-4.833647609E-2,3.398683667E-2,-9.171104431E-2
4.898051039E0,-2.303382754E-2,4.413056374E-2,-3.798866272E-2
4.908213392E0,1.816099882E-2,3.018301725E-2,8.568954468E-2
4.918375746E0,2.021723986E-2,4.133445024E-2,1.218976974E-1
4.928568617E0,-1.825198531E-2,7.017654181E-2,1.571655273E-2
4.938730970E0,-3.016340733E-2,7.538735867E-2,-4.588985443E-2
4.948893324E0,-3.742033243E-2,9.601905942E-2,9.268760681E-3
4.959055677E0,-9.019279480E-2,7.184538245E-2,2.081584930E-2
4.969218031E0,-1.415797472E-1,7.680416107E-2,-2.731657028E-1
4.979380384E0,-9.978660941E-2,6.761416793E-2,-4.828758240E-1
4.989542738E0,1.210460365E-1,1.968258619E-2,8.702468872E-2
4.999705091E0,2.181940675E-1,-2.461335063E-2,8.200054169E-1
5.009867445E0,8.925741911E-2,-4.784673452E-3,3.187904358E-1
5.020060316E0,-3.294765949E-2,5.385804176E-2,-2.118873596E-1
5.030222670E0,-1.826230884E-1,9.786599874E-2,-6.511783600E-1
5.040385023E0,-1.475261748E-1,9.898075461E-2,-3.767957687E-1
5.050547377E0,2.161264420E-4,4.045322537E-2,1.622676849E-1
5.060709730E0,3.769686818E-2,-1.806956530E-2,3.340625763E-1
5.070872084E0,1.222354174E-2,-3.844261169E-3,1.730203629E-1
5.081034437E0,-2.395761013E-2,4.219317436E-2,-1.161193848E-2
5.091196791E0,-5.357387662E-2,1.052086055E-1,-4.990005493E-2
5.101359144E0,-7.590225339E-2,1.639754772E-1,1.002788544E-2
5.111521498E0,-6.926074624E-2,1.520710289E-1,5.788803101E-2
5.121683851E0,-5.769434571E-2,1.329095960E-1,5.784797668E-2
5.131846205E0,-4.142385721E-2,9.925568104E-2,2.912807465E-2
5.142008558E0,-4.200819135E-2,6.551346183E-2,1.720905304E-2
5.152170912E0,-5.224198103E-2,3.612604737E-2,4.892349243E-4
5.162333265E0,-4.548934102E-2,1.800027490E-2,-3.293132782E-2
5.172526136E0,-3.122076392E-2,2.361363173E-2,-5.909347534E-2
5.182688490E0,-1.184907556E-2,2.256929874E-2,-4.213714600E-2
5.192850843E0,7.666289806E-3,4.834821820E-2,1.303291321E-2
5.203013197E0,1.979097724E-2,5.760404468E-2,3.938865662E-2
5.213175550E0,1.716992259E-2,8.835524321E-2,4.178524017E-2
5.223337904E0,1.184090972E-2,9.061300755E-2,2.028179169E-2
5.233500258E0,-4.600843787E-2,8.616423607E-2,2.752399445E-2
5.243662611E0,-6.504490972E-2,6.058940291E-2,5.390548706E-2
5.253824965E0,-6.197279692E-2,4.637947679E-2,2.741146088E-2
5.264017836E0,-3.995195031E-2,3.409817815E-2,-7.901668549E-2
5.274149672E0,-2.122050524E-2,6.013107300E-2,1.209793091E-1
5.284342543E0,-4.708892107E-2,6.845533848E-2,7.858753204E-2
5.294504896E0,-3.897437453E-2,8.120515943E-2,-1.377506256E-1
5.304667250E0,1.912075281E-2,6.696119905E-2,-1.988601685E-1
5.314829603E0,5.259513855E-2,5.228936672E-2,-3.662872314E-2
5.324991957E0,7.315695286E-3,5.379894376E-2,7.037448883E-2
5.335154310E0,-3.007495403E-2,4.683783650E-2,-2.279853821E-2
5.345316664E0,-2.919739485E-2,7.500162721E-2,-2.689456940E-2
5.355479017E0,-9.499698877E-3,9.833130240E-2,3.521633148E-2
5.365641371E0,-2.333283424E-2,1.118665934E-1,6.785869598E-2
5.375803724E0,-2.285212278E-2,1.344182193E-1,7.158756256E-2
5.385966078E0,-3.210717440E-2,1.163274348E-1,5.874824524E-2
5.396128431E0,-2.958452702E-2,9.394532442E-2,5.788803101E-2
5.406290785E0,-1.047503948E-2,6.964802742E-2,7.128143311E-2
5.416453138E0,-8.404493332E-3,5.005282164E-2,6.076622009E-2
5.426615492E0,-1.606839895E-2,4.661798477E-2,3.145313263E-2
5.436777845E0,-2.110424638E-2,3.557002544E-2,-4.706001282E-2
5.446940199E0,-2.557951212E-2,3.902339935E-2,-1.004705429E-1
5.457102552E0,-1.791679859E-2,4.328709841E-2,-5.838871002E-2
5.467264906E0,-2.684935927E-2,4.303526878E-2,1.129341125E-2
5.477427259E0,-5.210953951E-2,4.684048891E-2,3.715610504E-2
5.487620131E0,-6.534788013E-2,4.801863432E-2,-1.774692535E-2
5.497782484E0,-7.620725036E-2,4.284209013E-2,-5.743122101E-2
5.507944838E0,-7.252746820E-2,4.093754292E-2,-4.681968689E-2
5.518107191E0,-5.937853456E-2,3.944969177E-2,-1.507663727E-2
5.528269545E0,-4.412737489E-2,4.238164425E-2,-2.847671509E-3
5.538431898E0,-2.909263968E-2,4.249674082E-2,-2.388668060E-2
5.548594252E0,-1.657027006E-2,6.161105633E-2,-2.094173431E-2
5.558756605E0,-8.888989687E-3,6.879359484E-2,1.981925964E-2
5.568918959E0,-1.319015026E-2,6.405550241E-2,3.151512146E-2
5.579081312E0,-2.207705379E-2,7.088679075E-2,2.878379822E-2
5.589243666E0,-2.396923304E-2,8.242309093E-2,2.609062195E-2
5.599406019E0,-9.349316359E-3,7.487559319E-2,1.400470734E-2
5.609598890E0,-9.003549814E-3,7.949090004E-2,-1.869201660E-4
5.619761244E0,-1.629114151E-3,6.764137745E-2,2.404212952E-3
5.629923597E0,-3.598183393E-3,5.112385750E-2,3.570556641E-2
5.640085951E0,4.141122103E-3,4.629945755E-2,4.233932495E-2
5.650248304E0,5.117058754E-5,4.599678516E-2,-5.500793457E-3
5.660410658E0,-3.788232803E-3,5.272972584E-2,-5.484104156E-2
5.670573011E0,-3.561866283E-2,5.271208286E-2,-7.976531982E-2
5.680735365E0,-6.891104579E-2,6.040614843E-2,-1.088542938E-1
5.690897718E0,-8.713772893E-2,5.226498842E-2,-7.352256775E-2
5.701060072E0,-2.515229583E-2,4.224324226E-2,7.712268829E-2
5.711222425E0,4.313081503E-3,3.357666731E-2,1.656398773E-1
5.721384779E0,-9.544700384E-3,5.196189880E-2,3.999996185E-2
5.731577650E0,-1.149967313E-2,7.271236181E-2,-2.409744263E-2
5.741740004E0,-2.316534519E-3,8.931368589E-2,8.767318726E-2
5.751902357E0,-6.256362796E-2,7.472342253E-2,8.622360229E-2
5.762064711E0,-1.262809038E-1,7.913851738E-2,-1.613874435E-1
5.772227064E0,-1.320364177E-1,7.839483023E-2,-5.173616409E-1
5.782389418E0,6.282627583E-2,2.965784073E-2,-1.711826324E-1
5.792551771E0,1.940195858E-1,-3.574752808E-2,7.133769989E-1
5.802714125E0,6.674253941E-2,-4.583662748E-2,1.970415115E-1
5.812876478E0,-4.580259323E-3,-1.079696417E-2,-2.599544525E-1
5.823038832E0,-7.746779919E-2,3.220421076E-2,-3.497695923E-1
5.833201185E0,-6.712728739E-2,3.771072626E-2,-8.342170715E-2
5.843363539E0,2.322763205E-2,2.977102995E-2,1.260747910E-1
5.853525892E0,4.554846883E-2,3.438985348E-2,1.191844940E-1
5.863688246E0,-7.211118937E-3,8.645969629E-2,5.803585052E-2
5.873850599E0,-7.825064659E-2,1.300479770E-1,-8.979797363E-3
5.884043470E0,-1.109640896E-1,1.836211085E-1,-2.264308929E-2
5.894205824E0,-1.080674529E-1,1.847493052E-1,-5.216598511E-4
5.904368177E0,-7.714927197E-2,1.657490134E-1,1.650810242E-2
5.914530531E0,-3.291746974E-2,1.003254652E-1,5.942821503E-2
5.924692884E0,1.740142703E-2,5.916780233E-2,7.548999786E-2
5.934855238E0,9.749531746E-3,3.708660603E-3,5.806922913E-2
5.945017591E0,-3.113120794E-3,-2.829033136E-2,7.838249207E-3
5.955179945E0,-8.934110403E-3,-2.327245474E-2,9.183883667E-4
5.965342299E0,-1.919203997E-2,-1.731592417E-2,-1.313018799E-2
5.975504652E0,-2.875739336E-2,-2.631068230E-3,-3.252983093E-3
5.985667006E0,-1.174297929E-2,1.638269424E-2,2.768039703E-2
5.995829359E0,3.865659237E-4,3.516680002E-2,6.048297882E-2
6.005991713E0,1.445785165E-2,4.420644045E-2,4.780960083E-2
6.016154066E0,1.147225499E-2,4.361796379E-2,2.353000641E-2
6.026346937E0,-3.375530243E-3,4.311698675E-2,6.783485413E-3
6.036509291E0,-1.569858193E-2,1.898586750E-2,2.344608307E-2
6.046671644E0,-3.511977196E-2,-2.844214439E-3,-2.201175690E-2
6.056833998E0,-3.603079915E-2,2.769982815E-2,-5.652523041E-2
6.066996351E0,-4.745453596E-2,5.317747593E-2,1.641712189E-1
6.077158705E0,-7.895508409E-2,7.279253006E-2,5.221366882E-3
6.087321058E0,-3.798085451E-2,7.142955065E-2,-1.268434525E-1
6.097483412E0,2.175417542E-2,5.011773109E-2,-6.063079834E-2
6.107645765E0,3.996235132E-2,5.765700340E-2,-5.476856232E-2
6.117808119E0,1.723572612E-2,5.993694067E-2,-5.832672119E-2
6.127970472E0,-1.483398676E-2,6.438726187E-2,-1.227188110E-2
6.138132826E0,-1.563379169E-2,7.807797194E-2,-2.470016479E-3
6.148325697E0,-1.405999064E-2,7.730662823E-2,3.087806702E-2
6.158488050E0,4.242151976E-3,8.798450232E-2,8.722019196E-2
6.168650404E0,-8.081853390E-3,9.769296646E-2,1.023569107E-1
6.178812758E0,-1.289290190E-2,9.489303827E-2,8.414268494E-2
6.188975111E0,-3.383189440E-3,6.863003969E-2,2.612972260E-2
6.199137465E0,3.589093685E-3,4.803645611E-2,3.059101105E-2
6.209299818E0,3.258109093E-3,2.304947376E-2,5.385017395E-2
6.219462172E0,-9.124189615E-3,1.930457354E-2,1.509571075E-2
6.229624525E0,-2.607074380E-2,5.500555038E-3,-4.426956177E-2
6.239786879E0,-3.314656019E-2,1.556295156E-2,-6.709194183E-2
6.249949232E0,-3.774347901E-2,2.316713333E-2,-2.807903290E-2
6.260111586E0,-3.527578712E-2,1.374638081E-2,1.491737366E-2
6.270273939E0,-5.169975758E-2,1.112759113E-2,1.936435699E-2
6.280466810E0,-7.034426928E-2,2.961540222E-2,7.204055786E-3
6.290629164E0,-8.855018020E-2,4.568952322E-2,-1.421833038E-2
6.300791517E0,-8.968225121E-2,4.738056660E-2,-3.528404236E-2
6.310953871E0,-7.169020176E-2,3.015184402E-2,-4.413890839E-2
6.321116224E0,-4.434815049E-2,2.721524239E-2,-3.865051270E-2
6.331278578E0,-2.221593261E-2,3.570228815E-2,2.149581909E-3
6.341440931E0,-5.165427923E-3,3.639698029E-2,2.324581146E-2
6.351603285E0,2.018481493E-3,4.365122318E-2,1.560020447E-2
6.361765638E0,-5.704760551E-4,5.070668459E-2,-1.345634460E-3
6.371927992E0,-8.676052094E-4,3.374618292E-2,7.996559143E-3
6.382090345E0,1.385837793E-3,5.005174875E-2,1.243305206E-2
6.392252699E0,8.549541235E-3,5.888062716E-2,1.212215424E-2
6.402415052E0,2.280023694E-2,5.574882030E-2,-7.149696350E-3
6.412577406E0,1.816257834E-2,5.279779434E-2,-3.552913666E-2
6.422739759E0,8.855402470E-3,4.298067093E-2,-5.633735657E-2
6.432932631E0,-2.156737447E-2,4.289275408E-2,-6.261253357E-2
6.443094984E0,-4.180860519E-2,3.587341309E-2,-6.635665894E-2
6.453257338E0,-4.740461707E-2,2.898359299E-2,-3.770828247E-3
6.463419691E0,-1.313957572E-2,1.712679863E-2,7.179641724E-2
6.473582045E0,-5.851298571E-3,2.578490973E-2,4.423236847E-2
6.483744398E0,-2.725440264E-2,4.352521896E-2,-2.285957336E-2
6.493906752E0,-3.680780530E-2,4.947566986E-2,2.946472168E-2
6.504069105E0,-5.173960328E-2,4.815405607E-2,8.540248871E-2
6.514231459E0,-9.985923767E-2,4.831695557E-2,1.977539062E-2
6.524393812E0,-1.040494144E-1,6.064039469E-2,-2.626667023E-1
6.534556166E0,-5.785167217E-2,3.990852833E-2,-5.200653076E-1
6.544718519E0,1.337025464E-1,-1.071417332E-2,2.042131424E-1
6.554880873E0,1.611239314E-1,-3.641015291E-2,6.315040588E-1
6.565043226E0,4.511734843E-2,-2.044934034E-2,-3.635406494E-3
6.575205580E0,-1.248365641E-2,3.409928083E-2,-2.853755951E-1
6.585367933E0,-9.565901756E-2,6.440949440E-2,-3.349514008E-1
6.595530287E0,-8.145579696E-2,5.214363337E-2,-9.998226166E-2
6.605723158E0,3.578752279E-3,3.336954117E-2,8.582115173E-2
6.615885511E0,3.463077545E-2,3.205865622E-2,1.076116562E-1
6.626047865E0,-1.197302341E-2,6.696903706E-2,5.336856842E-2
6.636210218E0,-7.455760241E-2,1.051101089E-1,-6.874084473E-3
6.646372572E0,-1.011184454E-1,1.527844667E-1,-1.389598846E-2
6.656534925E0,-1.110812128E-1,1.616755128E-1,1.938629150E-2
6.666697279E0,-8.132261038E-2,1.427889466E-1,4.508876801E-2
6.676859633E0,-3.860852122E-2,9.324407578E-2,7.737541199E-2
6.687021986E0,7.641822100E-3,3.967732191E-2,7.838344574E-2
6.697184340E0,2.673989534E-2,1.233625412E-2,6.279373169E-2
6.707346693E0,2.412465215E-2,-1.333266497E-2,2.376270294E-2
6.717509047E0,3.096380830E-2,-1.374191046E-2,-1.005458832E-2
6.727701918E0,1.199758053E-2,3.903865814E-3,-4.327106476E-2
6.737864271E0,3.216862679E-3,1.400423050E-2,-4.745578766E-2
6.748026625E0,-7.220596075E-3,2.675092220E-2,-2.564620972E-2
6.758188978E0,3.859788179E-3,5.394405127E-2,1.954174042E-2
6.768351332E0,1.014983654E-2,5.259388685E-2,4.972267151E-2
6.778513685E0,-3.471076488E-4,5.855762959E-2,3.214740753E-2
6.788676039E0,-4.363545775E-2,6.926667690E-2,1.251602173E-2
6.798838392E0,-5.039474368E-2,5.630564690E-2,3.115463257E-2
6.809000746E0,-4.738506675E-2,3.887033463E-2,2.560329437E-2
6.819163099E0,-3.359478712E-2,2.405697107E-2,-7.873249054E-2
6.829325453E0,-4.215377569E-2,4.045164585E-2,9.018325806E-2
6.839487806E0,-6.628096104E-2,5.129843950E-2,3.618431091E-2
6.849650160E0,-7.070451975E-2,7.147276402E-2,-1.465358734E-1
6.859843031E0,-1.525846124E-2,6.674164534E-2,-1.416568756E-1
6.870005384E0,2.972826362E-2,5.375105143E-2,-4.708290100E-2
6.880167738E0,2.154695988E-2,5.728161335E-2,3.166103363E-2
6.890330091E0,-1.028454304E-2,4.828763008E-2,1.197338104E-2
6.900492445E0,-3.690776229E-2,4.647171497E-2,-3.324222565E-2
6.910654799E0,-2.521681786E-2,6.857794523E-2,1.931953430E-2
6.920817152E0,5.449354649E-4,9.287017584E-2,1.040449142E-1
6.930979506E0,1.398956776E-2,1.089500785E-1,1.187038422E-1
6.941141859E0,1.516956091E-2,1.076597571E-1,7.401180267E-2
6.951304213E0,1.865696907E-2,9.245920181E-2,2.071285248E-2
6.961466566E0,2.471995354E-2,8.075058460E-2,2.990818024E-2
6.971628920E0,1.386451721E-2,7.406473160E-2,8.128643036E-2
6.981821791E0,-3.910958767E-3,4.791489244E-2,2.775955200E-2
6.991984144E0,-2.096903324E-2,4.274368286E-2,-5.553627014E-2
7.002146498E0,-4.690563679E-2,5.005437136E-2,-9.960269928E-2
7.012308851E0,-3.922837973E-2,4.458793998E-2,-9.312248230E-2
7.022471205E0,-2.933594584E-2,4.047709703E-2,-1.107978821E-2
7.032633558E0,-4.330027103E-2,5.144989491E-2,5.062675476E-2
7.042795912E0,-5.949920416E-2,6.010290980E-2,3.092956543E-2
7.052958265E0,-6.336900592E-2,6.445670128E-2,4.584312439E-3
7.063120619E0,-4.802525043E-2,6.484425068E-2,1.423645020E-2
7.073282972E0,-4.685863853E-2,5.120629072E-2,4.494667053E-2
7.083445326E0,-3.406599164E-2,4.192978144E-2,5.616664886E-2
7.093607679E0,-2.381336689E-2,3.191548586E-2,2.939319611E-2
7.103770033E0,-1.375252008E-2,3.345483541E-2,2.192878723E-2
7.113932386E0,-6.485462189E-3,2.296340466E-2,1.453495026E-2
7.124094740E0,-1.148724556E-2,4.067862034E-2,1.672267914E-2
7.134257093E0,-1.435571909E-2,4.135608673E-2,2.358341217E-2
7.144419447E0,-7.671713829E-3,5.121624470E-2,3.980159760E-2
7.154581800E0,8.525520563E-3,6.065630913E-2,2.263450623E-2
7.164774672E0,1.181185246E-3,5.780470371E-2,1.754856110E-2
7.174937025E0,-3.537982702E-3,4.992163181E-2,1.730823517E-2
7.185099379E0,8.661717176E-3,6.314176321E-2,2.407646179E-2
7.195261732E0,1.125428081E-2,5.459111929E-2,1.655483246E-2
7.205424086E0,2.073794603E-3,6.251686811E-2,-5.063056946E-3
7.215586439E0,-2.125227451E-2,5.376058817E-2,-2.153015137E-2
7.225748793E0,-3.962889314E-2,4.977774620E-2,-4.011440277E-2
7.235911146E0,-5.072775483E-2,5.520951748E-2,-6.550598145E-2
7.246073500E0,-3.086006641E-2,4.397124052E-2,-4.313659668E-2
7.256235853E0,7.335424423E-3,3.263032436E-2,4.741287231E-2
7.266398207E0,2.805885673E-2,2.800437808E-2,8.661937714E-2
7.276560560E0,3.528445959E-3,2.710956335E-2,2.118110657E-2
7.286722914E0,-1.108995080E-2,4.992726445E-2,-1.001262665E-2
7.296885267E0,3.974735737E-4,4.704073071E-2,3.737449646E-2
7.307078138E0,-3.864043951E-2,5.152744055E-2,1.761436462E-2
7.317240492E0,-1.243606210E-1,6.099152565E-2,-1.557579041E-1
7.327402845E0,-1.590256095E-1,5.803880095E-2,-5.381832123E-1
7.337565199E0,1.312845945E-2,2.880793810E-2,-2.346725464E-1
7.347727552E0,2.248924375E-1,-1.344966888E-2,7.931137085E-1
7.357889906E0,1.307667792E-1,-2.211949229E-2,4.759216309E-1
7.368052259E0,1.085451245E-2,1.164689660E-2,-9.507560730E-2
7.378214613E0,-1.272208989E-1,5.724886060E-2,-5.970001221E-1
7.388376966E0,-1.388897896E-1,7.894188166E-2,-4.567375183E-1
7.398539320E0,-1.850521564E-2,3.486138582E-2,5.135154724E-2
7.408701674E0,2.833062410E-2,-2.240365744E-2,2.735786438E-1
7.418864027E0,1.031494141E-2,-2.807408571E-2,1.699800491E-1
7.429026381E0,-4.168161750E-2,2.856114507E-2,1.872825623E-2
7.439188734E0,-7.753363252E-2,9.194362164E-2,-3.403186798E-2
7.449351088E0,-1.061644852E-1,1.558644176E-1,-5.245208740E-4
7.459543959E0,-9.171015024E-2,1.829902530E-1,4.015922546E-2
7.469706312E0,-6.064686179E-2,1.600619853E-1,5.206108093E-2
7.479868666E0,-3.235852718E-2,1.131857038E-1,4.957962036E-2
7.490031019E0,-9.072840214E-3,6.631824374E-2,2.082061768E-2
7.500193373E0,-5.055248737E-3,2.159985900E-2,6.452560425E-3
7.510355726E0,-1.534461975E-2,2.415543795E-2,-2.465248108E-2
7.520518080E0,-2.057561278E-2,3.076604009E-2,-3.417873383E-2
7.530680433E0,-2.070966363E-2,2.748668194E-2,-3.176116943E-2
7.540842787E0,-2.773797512E-2,2.442926168E-2,-1.975536346E-2
7.551005140E0,-1.320287585E-2,3.613093495E-2,2.090740204E-2
7.561198011E0,1.154959202E-3,5.029183626E-2,3.280735016E-2
7.571360365E0,3.096997738E-3,6.198948622E-2,3.269767761E-2
7.581522718E0,-2.391943336E-2,5.436834693E-2,1.107692719E-2
7.591685072E0,-4.593521357E-2,5.404874682E-2,2.057361603E-2
7.601847425E0,-6.006526947E-2,4.855138063E-2,3.696155548E-2
7.612009779E0,-4.763412476E-2,4.472848773E-2,-1.593017578E-2
7.622172133E0,-3.369411826E-2,5.509394407E-2,-6.729698181E-2
7.632334486E0,-3.432640433E-2,7.244580984E-2,1.344738007E-1
7.642496840E0,-6.044933200E-2,7.930222154E-2,4.438018799E-2
7.652659193E0,-4.093810916E-2,8.624523878E-2,-1.738605499E-1
7.662821547E0,1.392960548E-4,7.607617974E-2,-2.085170746E-1
7.672983900E0,3.808182478E-2,5.349206924E-2,-1.501083374E-3
7.683146254E0,1.990556717E-3,4.475969076E-2,5.739116669E-2
7.693308607E0,-2.683159709E-2,3.964853287E-2,-4.992675781E-2
7.703470961E0,-1.514503360E-2,5.823633075E-2,-4.898452759E-2
7.713633314E0,-3.556221724E-3,9.827494621E-2,3.461742401E-2
7.723826185E0,-1.631796360E-3,1.209304929E-1,8.128356934E-2
7.733988539E0,-2.246946096E-3,1.163861752E-1,8.689689636E-2
7.744150892E0,-5.228519440E-4,1.212196052E-1,5.228900909E-2
7.754313246E0,-1.220375299E-3,9.084379673E-2,1.835536957E-2
7.764475599E0,-4.397183657E-3,6.390324235E-2,6.065845490E-2
7.774637953E0,1.629054546E-3,4.648372531E-2,1.021375656E-1
7.784800306E0,-2.079913020E-2,3.296887875E-2,2.686023712E-2
7.794962660E0,-4.963734746E-2,3.807348013E-2,-8.005237579E-2
7.805125013E0,-5.168610811E-2,4.137760401E-2,-9.754657745E-2
7.815317884E0,-2.758780122E-2,4.346269369E-2,-3.679656982E-2
7.825449720E0,-3.700217605E-2,5.540728569E-2,-5.464553833E-3
7.835642591E0,-4.619857669E-2,4.100173712E-2,4.112243652E-3
7.845804945E0,-5.527120829E-2,3.395512700E-2,-3.375530243E-2
7.855967299E0,-5.922612548E-2,5.155605078E-2,-5.203247070E-2
7.866129652E0,-4.870906472E-2,5.560579896E-2,-2.027702332E-2
7.876292006E0,-3.108686209E-2,5.741482973E-2,2.752208710E-2
7.886454359E0,-6.706953049E-3,6.117784977E-2,4.133987427E-2
7.896616713E0,-1.829710603E-2,6.195917726E-2,3.130245209E-2
7.906779066E0,-3.688776493E-2,5.331987143E-2,-6.930351257E-3
7.916941420E0,-5.288037658E-2,6.623476744E-2,-9.016036987E-3
7.927103773E0,-5.449196696E-2,6.025573611E-2,-8.802413940E-3
7.937266127E0,-5.374297500E-2,7.125583291E-2,-8.581161499E-3
7.947428480E0,-3.877258301E-2,8.683216572E-2,-1.067447662E-2
7.957590834E0,-9.801805019E-3,7.660257816E-2,-2.688598633E-2
7.967753187E0,1.410189271E-2,8.111184835E-2,-9.778022766E-3
7.977915541E0,2.129459381E-2,6.714701653E-2,9.521484375E-3
7.988108412E0,2.133733034E-2,5.364540219E-2,2.374172211E-2
7.998270765E0,-2.272129059E-3,4.735082388E-2,1.409435272E-2
8.008433119E0,-2.307707071E-2,5.062556267E-2,2.257347107E-3
8.018595472E0,-4.114416242E-2,5.155587196E-2,-7.024765015E-3
8.028757826E0,-3.516927361E-2,5.009448528E-2,5.105972290E-3
8.038920179E0,-4.103493690E-2,5.320331454E-2,3.122043610E-2
8.049082533E0,-2.783519030E-2,5.353760719E-2,3.558158875E-2
8.059244886E0,-9.929984808E-3,4.410934448E-2,2.814102173E-2
8.069407240E0,2.993345261E-3,4.659548402E-2,2.786922455E-2
8.079569593E0,1.521319151E-3,3.963625431E-2,-1.023292542E-2
8.089731947E0,-1.903074980E-2,4.028737545E-2,-8.787918091E-2
8.099894300E0,-5.082920194E-2,4.170280695E-2,-1.380920410E-1
8.110056654E0,-7.460364699E-2,3.695672750E-2,-1.045989990E-1
8.120249525E0,-4.828226566E-2,2.785688639E-2,2.523040771E-2
8.130411879E0,-6.322532892E-3,2.509677410E-2,1.431999207E-1
8.140574232E0,-2.691999078E-2,4.896306992E-2,8.176517487E-2
8.150736586E0,-4.721254110E-2,6.973540783E-2,3.204345703E-4
8.160898939E0,-2.276843786E-2,9.581059217E-2,6.440925598E-2
8.171061293E0,-5.405321717E-2,8.401656151E-2,6.578063965E-2
8.181223646E0,-9.902361035E-2,8.894550800E-2,-5.832958221E-2
8.191386000E0,-1.341493130E-1,9.527862072E-2,-4.565448761E-1
8.201548353E0,2.270492911E-2,5.096799135E-2,-3.198213577E-1
8.211710707E0,2.193705440E-1,-2.691292763E-2,5.519609451E-1
8.221873060E0,1.397945881E-1,-4.804867506E-2,4.087438583E-1
8.232035414E0,1.375356317E-2,-2.818018198E-2,-2.004156113E-1
8.242197767E0,-6.353941560E-2,2.664577961E-2,-4.001646042E-1
8.252360121E0,-7.220074534E-2,3.503012657E-2,-1.729135513E-1
8.262522474E0,-2.444919944E-2,3.365159035E-2,1.398334503E-1
8.272715345E0,1.258507371E-2,2.550703287E-2,2.154054642E-1
8.282877699E0,-8.946955204E-3,5.417764187E-2,9.108448029E-2
8.293040052E0,-6.357535720E-2,1.066936851E-1,-3.333854675E-2
8.303202406E0,-9.429275990E-2,1.548974514E-1,-7.033538818E-2
8.313364759E0,-1.081829965E-1,1.653752923E-1,-4.505062103E-2
8.323527113E0,-8.883643150E-2,1.514056325E-1,1.294326782E-2
8.333689466E0,-4.719907045E-2,1.211996675E-1,5.885505676E-2
8.343851820E0,-3.462415934E-2,7.426977158E-2,7.119178772E-2
8.354014174E0,-1.723939180E-2,3.117477894E-2,3.262805939E-2
8.364176527E0,-1.970890164E-2,-2.412021160E-3,4.199981689E-3
8.374338881E0,-1.570385695E-2,-2.263498306E-2,-7.418632507E-3
8.384501234E0,-1.931658387E-2,-2.505785227E-2,2.418518066E-3
8.394663588E0,-1.329478621E-2,-1.882189512E-2,-6.952285767E-3
8.404856459E0,9.796679020E-3,-5.633890629E-3,2.837181091E-3
8.415018812E0,3.550222516E-2,2.637624741E-3,4.843616486E-2
8.425181166E0,4.227405787E-2,1.788675785E-2,6.524372101E-2
8.435343519E0,4.416823387E-2,3.780263662E-2,6.289005280E-2
8.445505873E0,1.206949353E-2,4.762965441E-2,1.718139648E-2
8.455668226E0,-2.663198113E-2,4.093569517E-2,1.714801788E-2
8.465830580E0,-5.505850911E-2,1.988989115E-2,3.839111328E-2
8.475992933E0,-4.521575570E-2,1.525318623E-2,-3.561973572E-2
8.486155287E0,-4.076546431E-2,2.724397182E-2,-5.556964874E-2
8.496317640E0,-3.939992189E-2,7.461345196E-2,1.580286026E-1
8.506479994E0,-5.865401030E-2,7.083374262E-2,3.980636597E-3
8.516642347E0,-3.647339344E-2,7.007688284E-2,-1.375713348E-1
8.526804701E0,1.423820853E-2,5.219852924E-2,-1.064853668E-1
8.536967054E0,5.166894197E-2,3.526437283E-2,-3.816604614E-2
8.547159925E0,3.840371966E-2,3.669154644E-2,1.464748383E-2
8.557322279E0,3.982722759E-3,4.652649164E-2,-1.375007629E-2
8.567484633E0,-1.583141088E-2,5.828315020E-2,-2.271842957E-2
8.577646986E0,-1.882812381E-2,8.199375868E-2,1.570510864E-2
8.587809340E0,-2.734661102E-3,1.169392467E-1,6.534576416E-2
8.597971693E0,-1.512971520E-2,1.078814864E-1,1.139211655E-1
8.608134047E0,-1.532617211E-2,1.101634502E-1,9.319019318E-2
8.618296400E0,-5.926668644E-3,9.146082401E-2,5.399131775E-2
8.628458754E0,9.493231773E-4,5.960941315E-2,4.623031616E-2
8.638621107E0,5.204766989E-3,2.369701862E-2,3.143405914E-2
8.648783461E0,-1.681086421E-2,6.774604321E-3,-3.522968292E-2
8.658945814E0,-3.852480650E-2,4.062473774E-3,-9.596538544E-2
8.669108168E0,-3.640967607E-2,-5.453765392E-3,-8.466815948E-2
8.679270521E0,-4.379150271E-2,-3.893375397E-4,4.425048828E-3
8.689432875E0,-3.212448955E-2,3.978610039E-3,6.828117371E-2
8.699625746E0,-3.479257226E-2,3.095966578E-2,5.768394470E-2
8.709788099E0,-5.382490158E-2,4.065185785E-2,1.650047302E-2
8.719950453E0,-7.015803456E-2,5.322569609E-2,-3.796768188E-2
8.730112806E0,-7.698711753E-2,4.510867596E-2,-4.186439514E-2
8.740275160E0,-5.980315804E-2,3.733325005E-2,-3.159141541E-2
8.750437513E0,-4.274517298E-2,2.965778112E-2,-6.398773193E-2
8.760599867E0,-2.357119322E-2,3.613364697E-2,-3.671360016E-2
8.770762220E0,-1.638486981E-2,4.934215546E-2,2.075290680E-2
8.780924574E0,-4.634350538E-3,5.451470613E-2,5.112266541E-2
8.791086927E0,-1.903700829E-2,5.211991072E-2,2.429103851E-2
8.801249281E0,-2.829983830E-2,7.600420713E-2,2.162361145E-2
8.811411634E0,-2.319663763E-2,6.179165840E-2,4.029083252E-2
8.821604506E0,-1.374244690E-3,5.724680424E-2,4.211330414E-2
8.831766859E0,3.774136305E-3,5.716019869E-2,2.967834473E-2
8.841929213E0,4.308670759E-3,3.989624977E-2,1.265430450E-2
8.852091566E0,9.653449059E-3,3.920781612E-2,-2.064514160E-2
8.862253920E0,1.021388173E-2,3.376156092E-2,-3.677272797E-2
8.872416273E0,-1.269122958E-2,2.140152454E-2,-5.501937866E-2
8.882578627E0,-2.033764124E-2,9.345412254E-3,-5.635929108E-2
8.892740980E0,-2.034634352E-3,1.426529884E-2,1.801681519E-2
8.902903334E0,3.729134798E-3,2.099585533E-2,7.198238373E-2
8.913065687E0,-7.453709841E-3,4.357904196E-2,1.871871948E-2
8.923228041E0,-1.409730315E-2,5.169624090E-2,1.955986023E-3
8.933390394E0,-2.615258098E-2,5.748206377E-2,7.044887543E-2
8.943552748E0,-6.915351748E-2,4.600667953E-2,5.245399475E-2
8.953715101E0,-8.544236422E-2,3.664207458E-2,-3.130817413E-2
8.963877455E0,-1.071432233E-1,4.476630688E-2,-4.047079086E-1
8.974070326E0,-1.906663179E-2,1.979649067E-2,-3.991584778E-1
8.984232679E0,1.503780186E-1,-2.306514978E-2,4.355602264E-1
8.994395033E0,9.415435791E-2,-3.492844105E-2,2.588167191E-1
9.004557386E0,2.898615599E-2,-6.348550320E-3,-1.424856186E-1
9.014719740E0,-3.481611609E-2,1.752656698E-2,-1.805486679E-1
9.024882093E0,-7.117387652E-2,3.199619055E-2,-1.208028793E-1
9.035044447E0,-2.702900767E-2,3.365606070E-2,-2.913570404E-2
9.045206800E0,2.597457170E-2,3.015434742E-2,2.553081512E-2
9.055369154E0,1.821956038E-2,4.338943958E-2,5.309391022E-2
9.065531508E0,-4.550433159E-2,6.792074442E-2,-1.878738403E-4
9.075693861E0,-8.257871866E-2,1.035513878E-1,-5.704593658E-2
9.085856215E0,-8.209076524E-2,1.300018430E-1,-4.414272308E-2
9.096018568E0,-6.796070933E-2,1.178065538E-1,2.296447754E-2
9.106180922E0,-2.167817950E-2,9.677714109E-2,7.479858398E-2
9.116373793E0,3.967046738E-3,6.404179335E-2,9.487438202E-2
9.126536146E0,2.392095327E-2,3.576928377E-2,6.253623962E-2
9.136698500E0,2.409318089E-2,2.343833447E-3,4.491329193E-2
9.146860853E0,7.485628128E-3,-1.536983252E-2,2.507972717E-2
9.157023207E0,-6.362110376E-3,-5.922138691E-3,7.877349854E-3
9.167185560E0,-1.014319062E-2,-4.827618599E-3,3.032684326E-4
9.177347914E0,-1.122367382E-2,1.943022013E-2,7.076263428E-3
9.187510267E0,-1.904070377E-2,3.145039082E-2,2.788543701E-2
9.197672621E0,-2.921643853E-2,4.354989529E-2,1.058864594E-2
9.207834974E0,-3.683501482E-2,5.340182781E-2,2.994537354E-3
9.217997328E0,-4.191899300E-2,4.465496540E-2,3.061294556E-4
9.228159681E0,-5.172991753E-2,4.125070572E-2,-1.406764984E-2
9.238352552E0,-4.922810197E-2,4.272866249E-2,1.198768616E-2
9.248514906E0,-3.494614363E-2,2.284097672E-2,-3.595447540E-2
9.258677259E0,-2.216503024E-2,3.415524960E-2,-5.876064301E-2
9.268839613E0,-2.230587602E-2,5.720615387E-2,1.190958023E-1
9.279001966E0,-5.480831861E-2,6.041252613E-2,1.489543915E-2
9.289164320E0,-4.112973809E-2,6.366181374E-2,-1.367826462E-1
9.299326674E0,2.505317330E-2,5.133348703E-2,-9.900951385E-2
9.309489027E0,2.868905663E-2,5.356425047E-2,-2.670669556E-2
9.319651381E0,2.011886239E-2,4.527330399E-2,-9.952545166E-3
9.329813734E0,-4.988431931E-3,4.557353258E-2,-5.344390869E-3
9.339976088E0,-1.751527190E-2,5.038541555E-2,-2.204513550E-2
9.350138441E0,5.638211966E-3,6.001913548E-2,2.071285248E-2
9.360300795E0,2.833700180E-2,7.394355536E-2,1.051607132E-1
9.370493666E0,2.454099059E-2,9.618836641E-2,1.195402145E-1
9.380656019E0,1.120465994E-2,8.902877569E-2,4.855537415E-2
9.390818373E0,7.709145546E-3,7.998913527E-2,-3.298187256E-2
9.400980726E0,-7.488459349E-3,7.191467285E-2,-1.127529144E-2
9.411143080E0,1.290684938E-2,5.278766155E-2,4.534816742E-2
9.421305433E0,2.092748880E-3,4.288649559E-2,3.005123138E-2
9.431467787E0,-2.259850502E-2,4.175567627E-2,-3.697204590E-2
9.441630140E0,-2.787300944E-2,2.625817060E-2,-7.684993744E-2
9.451792494E0,-1.640614867E-2,1.868063211E-2,-6.167411804E-2
9.461954847E0,-1.002728939E-2,2.338171005E-2,-8.889198303E-3
9.472117201E0,-3.231331706E-2,1.611703634E-2,3.588771820E-2
9.482279554E0,-4.949262738E-2,3.211617470E-2,2.783489227E-2
9.492441908E0,-7.083320618E-2,4.097115993E-2,-2.728843689E-2
9.502634779E0,-7.246816158E-2,6.211644411E-2,-5.063056946E-2
9.512797133E0,-6.881284714E-2,6.944185495E-2,-3.105545044E-2
9.522959486E0,-4.373610020E-2,7.467281818E-2,-3.074836731E-2
9.533121840E0,-4.029721022E-2,5.864050984E-2,-6.716728210E-3
9.543284193E0,-3.479045630E-2,4.995179176E-2,-9.109497070E-3
9.553446547E0,-5.311778188E-2,3.683751822E-2,-4.327774048E-3
9.563608900E0,-5.470877886E-2,4.779124260E-2,-4.374504089E-3
9.573771254E0,-4.668185115E-2,5.396926403E-2,2.634429932E-2
9.583933607E0,-3.153291345E-2,6.949895620E-2,4.232788086E-2
9.594095961E0,2.361893654E-3,8.943831921E-2,4.382514954E-2
9.604258314E0,1.434555650E-2,8.308196068E-2,2.785682678E-3
9.614420668E0,2.626329660E-3,7.952910662E-2,-4.468917847E-2
9.624583021E0,-1.581051946E-2,5.535107851E-2,-8.418178558E-2
9.634745375E0,-2.183306217E-2,3.700315952E-2,-7.802581787E-2
9.644907728E0,-1.675844193E-3,2.645063400E-2,-1.522064209E-2
9.655070082E0,2.944484353E-2,1.804319024E-2,8.907699585E-2
9.665262953E0,4.037496448E-2,2.747076750E-2,1.085729599E-1
9.675425306E0,5.901217461E-3,4.064771533E-2,7.266998291E-3
9.685587660E0,-2.558958530E-2,7.305762172E-2,-3.544425964E-2
9.695750013E0,-4.493138194E-2,8.253994584E-2,5.435943604E-4
9.705912367E0,-9.282302856E-2,9.275892377E-2,-1.980781555E-3
9.716074720E0,-1.294993758E-1,8.955270052E-2,-2.837333679E-1
9.726237074E0,-1.108633876E-1,6.795567274E-2,-4.294137955E-1
9.736399427E0,9.114333987E-2,5.489209294E-2,1.109542847E-1
9.746561781E0,1.838443875E-1,4.374116659E-3,8.272075653E-1
9.756724134E0,6.548255682E-2,2.043694258E-3,3.328342438E-1
9.766886488E0,-2.061951160E-2,4.840776324E-2,-1.318454742E-1
9.777048841E0,-1.244941354E-1,8.107298613E-2,-5.995941162E-1
9.787211195E0,-9.042942524E-2,7.785716653E-2,-4.497022629E-1
9.797404066E0,3.738084435E-2,2.031508088E-2,3.929042816E-2
9.807566420E0,7.893741131E-2,-3.812986612E-2,2.783079147E-1
9.817728773E0,3.371515870E-2,-3.039088845E-2,1.747493744E-1
9.827891127E0,-1.447755098E-2,3.796637058E-3,3.550910950E-2
9.838053480E0,-6.307467818E-2,8.259063959E-2,-5.325317383E-3
9.848215834E0,-8.761444688E-2,1.541722417E-1,3.289318085E-2
9.858378187E0,-8.786061406E-2,1.766808629E-1,5.436134338E-2
9.868540541E0,-6.174942851E-2,1.732014716E-1,4.475593567E-2
9.878702894E0,-2.851691842E-2,1.363328695E-1,6.861400604E-2
9.888865248E0,-2.897202969E-2,8.738011122E-2,5.414295197E-2
9.899027601E0,-2.468681335E-2,4.040578008E-2,2.059459686E-2
9.909189955E0,-2.279752493E-2,2.170982957E-2,-5.734443665E-3
9.919352308E0,-3.031778336E-2,2.415618300E-2,-2.723312378E-2
9.929514662E0,-2.565389872E-2,2.659523487E-2,-3.672599792E-2
9.939707533E0,-4.079073668E-3,4.357501864E-2,-7.572174072E-4
9.949869886E0,3.102749586E-3,4.867333174E-2,2.552890778E-2
9.960032240E0,5.257427692E-3,5.372023582E-2,3.742408752E-2
9.970194593E0,-1.183599234E-2,5.625849962E-2,2.777099609E-2
9.980356947E0,-2.409273386E-2,7.312965393E-2,1.815700531E-2
9.990519300E0,-4.563593864E-2,6.389057636E-2,2.292346954E-2
1.000068165E1,-4.730936885E-2,4.938071966E-2,2.982902527E-2
1.001084401E1,-2.514174581E-2,3.665637970E-2,-2.284336090E-2
1.002100636E1,-2.065581083E-2,4.051318765E-2,-3.624343872E-2
1.003116872E1,-4.010599852E-2,5.145439506E-2,1.532220840E-1
1.004133107E1,-6.344655156E-2,7.550081611E-2,4.400444031E-2
1.005149342E1,-4.853367805E-2,8.514559269E-2,-1.860580444E-1
1.006168629E1,4.307508469E-3,7.060351968E-2,-1.731014252E-1
1.007184865E1,3.497922421E-2,6.947368383E-2,1.185703278E-2
1.008201100E1,5.800366402E-3,6.288471818E-2,3.042221069E-2
1.009217335E1,2.696037292E-3,7.192969322E-2,-3.387928009E-2
1.010233571E1,1.906514168E-3,7.386434078E-2,-2.612400055E-2
1.011249806E1,-1.064744592E-2,9.029290080E-2,3.574657440E-2
1.012266041E1,-2.051106095E-2,1.064318717E-1,5.876731873E-2
1.013282277E1,-2.782356739E-2,1.056121290E-1,5.302619934E-2
1.014298512E1,-2.332922816E-2,9.786692262E-2,2.851104736E-2
1.015317799E1,2.241462469E-3,8.161482215E-2,2.582073212E-2
1.016334034E1,2.491739392E-2,6.357100606E-2,6.330394745E-2
1.017350270E1,1.367753744E-2,5.730587244E-2,8.120536804E-2
1.018366505E1,-1.417326927E-2,5.022770166E-2,3.250598907E-2
1.019382741E1,-5.073347688E-2,5.240988731E-2,-6.968593597E-2
1.020398976E1,-5.560588837E-2,5.806532502E-2,-1.109523773E-1
1.021415211E1,-4.836553335E-2,5.581346154E-2,-5.454444885E-2
1.022431447E1,-4.835850000E-2,6.145423651E-2,2.690505981E-2
1.023447682E1,-5.066648126E-2,5.251079798E-2,3.596496582E-2
1.024463917E1,-6.686687469E-2,4.135861993E-2,-1.180744171E-2
1.025480153E1,-5.891034007E-2,4.302757978E-2,-6.572628021E-2
1.026496388E1,-3.887394071E-2,3.882229328E-2,-5.477809906E-2
1.027512623E1,-1.646584272E-2,4.918131232E-2,2.451229095E-2
1.028528859E1,-1.323980093E-2,3.985983133E-2,5.272197723E-2
1.029545094E1,-1.968502998E-2,4.161071777E-2,3.788471222E-2
1.030561330E1,-2.381947637E-2,5.932879448E-2,-5.053520203E-3
1.031580617E1,-4.226070642E-2,6.537476182E-2,-3.069019318E-2
1.032596852E1,-4.866984487E-2,7.412177324E-2,-6.238937378E-3
1.033613087E1,-2.882125974E-2,7.813513279E-2,2.726364136E-2
1.034629323E1,-2.337440848E-2,6.981581450E-2,1.521205902E-2
1.035645558E1,-1.101922989E-2,5.661916733E-2,-3.730773926E-3
1.036661793E1,-1.037600636E-2,5.794489384E-2,-1.281547546E-2
1.037678029E1,1.522600651E-4,5.947864056E-2,8.973121643E-3
1.038694264E1,5.809545517E-3,5.870211124E-2,2.799034119E-2
1.039710499E1,-4.949182272E-3,5.785781145E-2,2.309513092E-2
1.040726735E1,-5.914688110E-3,5.700492859E-2,-1.248073578E-2
1.041742970E1,-6.618708372E-3,7.539153099E-2,-5.449199677E-2
1.042759205E1,-4.744717479E-2,6.321793795E-2,-1.005229950E-1
1.043775441E1,-7.312428951E-2,3.287231922E-2,-1.291303635E-1
1.044791676E1,-4.382708669E-2,3.207129240E-2,-3.423786163E-2
1.045810963E1,3.524124622E-3,4.053837061E-2,1.132955551E-1
1.046827199E1,2.821627259E-2,3.073024750E-2,1.280851364E-1
1.047843434E1,1.260042191E-4,4.811394215E-2,5.527687073E-2
1.048859669E1,1.022908092E-2,6.285530329E-2,6.181240082E-2
1.049875905E1,-1.150399446E-2,7.540202141E-2,9.167480469E-2
1.050892140E1,-7.353222370E-2,7.601159811E-2,2.168178558E-2
1.051908375E1,-1.383485496E-1,7.970434427E-2,-3.239040375E-1
1.052924611E1,-7.919177413E-2,6.727534533E-2,-4.591922760E-1
1.053940846E1,1.313160062E-1,1.041793823E-2,1.127462387E-1
1.054957081E1,1.588547826E-1,-4.198873043E-2,6.703567505E-1
1.055973317E1,3.355681896E-3,-3.854620457E-2,-2.668285370E-2
1.056992604E1,-5.735641718E-2,-4.100561142E-3,-2.977943420E-1
1.058008839E1,-9.512546659E-2,2.905452251E-2,-2.686414719E-1
1.059025075E1,-5.992946029E-2,4.430568218E-2,-8.583068848E-3
1.060041310E1,7.338941097E-3,3.546297550E-2,1.169424057E-1
1.061057545E1,1.820388436E-2,5.167531967E-2,9.135532379E-2
1.062073781E1,-3.412261605E-2,8.571773767E-2,1.658535004E-2
1.063090016E1,-7.862117887E-2,1.308349967E-1,-4.255676270E-2
1.064106251E1,-9.932500124E-2,1.617189646E-1,-5.328750610E-2
1.065122487E1,-9.160974622E-2,1.685348749E-1,-1.160621643E-2
1.066138722E1,-5.374673009E-2,1.382785439E-1,5.293560028E-2
1.067154957E1,-2.916425467E-3,9.913140535E-2,8.086585999E-2
1.068171193E1,1.125386357E-2,3.184300661E-2,6.344795227E-2
1.069187428E1,2.718767524E-2,-1.833796501E-3,3.449344635E-2
1.070203663E1,7.334679365E-3,-3.136938810E-2,5.949020386E-3
1.071222951E1,4.294872284E-3,-3.576576710E-2,8.555412292E-3
1.072239186E1,-5.637228489E-3,-2.005624771E-2,8.663177490E-3
1.073255421E1,-9.854137897E-4,-7.664263248E-3,-3.126144409E-3
1.074271657E1,-9.730160236E-4,2.360606194E-2,-3.120136261E-2
1.075287892E1,8.365213871E-3,3.820550442E-2,2.164268494E-2
1.076304127E1,-1.446247101E-3,5.724978447E-2,7.105922699E-2
1.077320363E1,-1.370069385E-2,4.007256031E-2,4.167842865E-2
1.078336598E1,-4.019263387E-2,4.196673632E-2,2.700042725E-2
1.079352833E1,-5.203083158E-2,2.235007286E-2,6.221294403E-2
1.080369069E1,-4.926022887E-2,9.673058987E-3,3.281688690E-2
1.081385304E1,-3.503382206E-2,1.113617420E-2,-1.188621521E-1
1.082401539E1,-2.214059234E-2,4.863083363E-2,1.175642014E-1
1.083417775E1,-4.231578112E-2,7.291334867E-2,9.389686584E-2
1.084434010E1,-3.735926747E-2,6.564986706E-2,-1.155605316E-1
1.085453297E1,2.029764652E-2,6.472527981E-2,-1.392278671E-1
1.086469533E1,5.543148518E-2,5.072385073E-2,-8.941268921E-2
1.087485768E1,4.895213246E-2,3.658473492E-2,-5.693435669E-2
1.088502003E1,2.807730436E-2,3.836274147E-2,-1.523017883E-3
1.089518239E1,-1.603487134E-2,4.178124666E-2,2.453804016E-2
1.090534474E1,-1.686200500E-2,5.667388439E-2,1.951026917E-2
1.091550709E1,-1.754033566E-2,8.072304726E-2,5.948638916E-2
1.092566945E1,1.020580530E-3,9.679687023E-2,1.058416367E-1
1.093583180E1,-1.819372177E-3,9.773141146E-2,8.509063721E-2
1.094599415E1,-2.103149891E-3,8.682149649E-2,4.586124420E-2
1.095615651E1,1.438260078E-4,6.014251709E-2,2.865505219E-2
1.096631886E1,2.289384604E-3,3.197872639E-2,3.773975372E-2
1.097648122E1,-1.467636228E-2,8.759438992E-3,1.648902893E-3
1.098667409E1,-2.662196755E-2,4.489362240E-3,-6.452846527E-2
1.099680592E1,-3.588935733E-2,1.207089424E-2,-7.750892639E-2
1.100699879E1,-3.081369400E-2,7.795095444E-4,-3.120803833E-2
1.101716115E1,-2.344205976E-2,3.608167171E-3,1.899719238E-2
1.102732350E1,-3.747552633E-2,1.046019793E-2,2.802181244E-2
1.103748585E1,-6.073084474E-2,1.445460320E-2,1.561832428E-2
1.104764821E1,-7.421615720E-2,3.002780676E-2,-5.967140198E-3
1.105781056E1,-6.847503781E-2,4.293525219E-2,-2.726078033E-2
1.106797291E1,-5.801752210E-2,4.844474792E-2,-4.819869995E-2
1.107813527E1,-3.559714556E-2,3.954279423E-2,-6.154727936E-2
1.108829762E1,-2.045208216E-2,3.542697430E-2,-2.981567383E-2
1.109845997E1,-1.498201489E-2,2.366924286E-2,1.545619965E-2
1.110862233E1,-1.453807950E-2,2.533304691E-2,4.573249817E-2
1.111878468E1,-9.432852268E-3,4.482883215E-2,4.240226746E-2
1.112894704E1,-1.126953959E-2,5.147701502E-2,3.904056549E-2
1.113910939E1,-3.580451012E-3,5.791288614E-2,-2.136230469E-3
1.114927174E1,1.666277647E-3,5.007141829E-2,-4.023170471E-2
1.115946461E1,-1.688686013E-2,5.206727982E-2,-8.242416382E-2
1.116962697E1,-3.248751163E-2,2.851855755E-2,-1.024942398E-1
1.117978932E1,-3.071099520E-2,2.687191963E-2,-6.781959534E-2
1.118995167E1,1.619219780E-3,1.100730896E-2,1.348114014E-2
1.120011403E1,1.138892770E-2,2.794754505E-2,4.365158081E-2
1.121027638E1,6.274998188E-3,4.918110371E-2,-4.714012146E-3
1.122043873E1,1.248791814E-2,7.541841269E-2,-2.605533600E-2
1.123060109E1,5.883872509E-3,7.583475113E-2,5.221176147E-2
1.124076344E1,-5.333185196E-2,7.838946581E-2,6.508064270E-2
1.125092580E1,-9.491181374E-2,7.121098042E-2,-9.736824036E-2
1.126111867E1,-9.805148840E-2,5.635005236E-2,-4.977512360E-1
1.127128102E1,2.022832632E-2,5.456805229E-4,-2.681140900E-1
1.128144337E1,1.927601397E-1,-6.164711714E-2,6.627769470E-1
1.129160573E1,9.631666541E-2,-4.723429680E-2,3.312206268E-1
1.130176808E1,-1.064413786E-2,-3.904461861E-3,-8.376026154E-2
1.131193043E1,-9.786859155E-2,5.091077089E-2,-3.546113968E-1
1.132209279E1,-1.095520258E-1,6.691789627E-2,-2.421922684E-1
1.133225514E1,-3.130310774E-2,3.156960011E-2,3.346824646E-2
1.134241749E1,3.556370735E-2,7.388055325E-3,1.270227432E-1
1.135257985E1,2.421370149E-2,1.293265820E-2,1.054754257E-1
1.136274220E1,-3.660836816E-2,3.449529409E-2,2.044773102E-2
1.137290455E1,-9.683042765E-2,9.550046921E-2,-2.506542206E-2
1.138306691E1,-1.116838455E-1,1.417440772E-1,1.114845276E-3
1.139322926E1,-9.581762552E-2,1.463230848E-1,3.645133972E-2
1.140339162E1,-5.458554626E-2,1.347825527E-1,6.408596039E-2
1.141355397E1,-5.100876093E-3,1.138091087E-1,6.518840790E-2
1.142374684E1,1.236236095E-2,7.183486223E-2,4.968833923E-2
1.143390919E1,1.522713900E-2,2.566260099E-2,8.453369141E-3
1.144407155E1,1.555949450E-2,1.564967632E-2,-3.445816040E-2
1.145423390E1,1.721382141E-3,1.508390903E-2,-5.532360077E-2
1.146439625E1,-1.395437121E-2,1.703530550E-2,-7.344722748E-2
1.147455861E1,-1.222333312E-2,1.481896639E-2,-6.286334991E-2
1.148472096E1,1.513361931E-3,1.819187403E-2,-2.406311035E-2
1.149488331E1,1.505631208E-2,2.919530869E-2,3.303527832E-2
1.150504567E1,-1.214146614E-4,2.581381798E-2,5.130290985E-2
1.151520802E1,-2.237635851E-2,3.184986115E-2,2.908134460E-2
1.152537038E1,-4.412224889E-2,3.545325994E-2,2.148914337E-2
1.153553273E1,-4.178410769E-2,2.946627140E-2,6.128311157E-2
1.154569508E1,-1.602360606E-2,2.269202471E-2,1.726150513E-2
1.155588795E1,-6.159394979E-3,2.479356527E-2,2.434062958E-2
1.156605031E1,-2.982702851E-2,5.000799894E-2,1.392650604E-1
1.157621266E1,-6.195458770E-2,3.603458405E-2,2.076721191E-2
1.158637501E1,-4.793798923E-2,5.351859331E-2,-1.309871674E-1
1.159653737E1,4.359453917E-3,5.321282148E-2,-1.358718872E-1
1.160669972E1,4.155406356E-2,4.699581861E-2,-7.216358185E-2
1.161686207E1,2.593660355E-2,5.034360290E-2,1.404571533E-2
1.162702443E1,-1.541978121E-2,4.555112123E-2,6.474494934E-3
1.163718678E1,-2.531039715E-2,5.708470941E-2,-4.327964783E-2
1.164734913E1,-1.822111011E-2,7.129868865E-2,-4.705429077E-3
1.165751149E1,7.647007704E-3,1.067594588E-1,1.064205170E-1
1.166767384E1,-2.732366323E-3,1.244419813E-1,1.280803680E-1
1.167783620E1,-1.542097330E-2,1.316222250E-1,7.376003265E-2
1.168799855E1,-6.629586220E-3,1.153107285E-1,1.333045959E-2
1.169819142E1,-3.652572632E-4,7.895761728E-2,4.379940033E-2
1.170835377E1,8.033514023E-3,4.089918733E-2,8.778381348E-2
1.171851613E1,-2.467036247E-3,1.667600870E-2,2.698040009E-2
1.172867848E1,-7.823467255E-3,2.293556929E-2,-5.160427094E-2
1.173884083E1,-2.457416058E-2,2.921235561E-2,-6.265354156E-2
1.174900319E1,-1.980525255E-2,3.850507736E-2,-3.568649292E-2
1.175916554E1,-2.707013488E-2,3.144451976E-2,4.985809326E-3
1.176932789E1,-4.129397869E-2,2.695667744E-2,7.135391235E-3
1.177949025E1,-7.430425286E-2,2.988255024E-2,-1.676464081E-2
1.178965260E1,-7.594305277E-2,4.520368576E-2,-3.307533264E-2
1.179981496E1,-7.258135080E-2,4.441887140E-2,-3.249835968E-2
1.180997731E1,-2.891954780E-2,6.063759327E-2,3.534317017E-3
1.182017018E1,-1.199659705E-2,6.449782848E-2,2.235317230E-2
1.183033253E1,-1.419097185E-2,4.434645176E-2,1.245117188E-2
1.184049489E1,-3.060984612E-2,5.053135753E-2,4.472732544E-4
1.185065724E1,-3.264385462E-2,5.442741513E-2,-1.140213013E-2
1.186081959E1,-4.877835512E-2,7.271644473E-2,6.322860718E-4
1.187098195E1,-3.385370970E-2,6.702351570E-2,2.658653259E-2
1.188114430E1,-1.680594683E-2,7.302173972E-2,4.974937439E-2
1.189130665E1,-2.202630043E-3,6.662216783E-2,6.308841705E-2
1.190146901E1,7.377922535E-3,6.013613939E-2,2.417087555E-2
1.191163136E1,1.210528612E-2,6.067845225E-2,-2.116394043E-2
1.192179372E1,-2.092403173E-2,5.949023366E-2,-6.095409393E-2
1.193195607E1,-2.707833052E-2,5.166059732E-2,-7.169342041E-2
1.194211842E1,-2.797031403E-2,4.688149691E-2,-3.255081177E-2
1.195228078E1,6.470918655E-3,4.224425554E-2,6.268978119E-2
1.196247365E1,3.981748223E-2,3.453695774E-2,1.253814697E-1
1.197263600E1,1.535367966E-2,5.170324445E-2,4.273319244E-2
1.198279835E1,-6.397068501E-3,7.333374023E-2,-5.723953247E-2
1.199296071E1,-1.146972179E-2,6.740164757E-2,-4.210472107E-3
1.200312306E1,-5.027779937E-2,6.694930792E-2,3.355312347E-2
1.201328541E1,-1.024834812E-1,6.908190250E-2,-8.553218842E-2
1.202344777E1,-1.233809888E-1,6.048199534E-2,-4.455127716E-1
1.203361012E1,2.492785454E-3,3.914025426E-2,-2.384519577E-1
1.204377247E1,1.852951646E-1,4.230439663E-4,6.175432205E-1
1.205393483E1,1.109245420E-1,1.700699329E-3,5.631093979E-1
1.206409718E1,1.067322493E-2,2.548965812E-2,1.229858398E-2
1.207425954E1,-1.023436487E-1,5.918708444E-2,-4.729576111E-1
1.208442189E1,-1.476365626E-1,7.116878033E-2,-5.457153320E-1
1.209458424E1,-3.937444091E-2,4.037001729E-2,-9.471702576E-2
1.210477711E1,4.582554102E-2,-5.773127079E-3,2.547245026E-1
1.211493947E1,3.488174081E-2,-4.320940375E-2,2.373819351E-1
1.212510182E1,-1.981019974E-2,6.607741117E-3,9.089565277E-2
1.213526417E1,-6.096595526E-2,6.859651208E-2,-5.033493042E-3
1.214542653E1,-9.028443694E-2,1.376397610E-1,4.516601562E-3
1.215558888E1,-7.384252548E-2,1.651845276E-1,4.280281067E-2
1.216575123E1,-4.283818603E-2,1.668380201E-1,5.471801758E-2
1.217591359E1,-1.902037859E-2,1.229986250E-1,4.272651672E-2
1.218607594E1,-9.661138058E-3,6.967937946E-2,3.313827515E-2
1.219623830E1,-1.248061657E-2,2.804741263E-2,2.117347717E-2
1.220640065E1,-3.214532137E-2,5.183398724E-3,-2.744674683E-3
1.221656300E1,-3.964132071E-2,-1.456290483E-3,-2.662754059E-2
1.222675587E1,-3.974220157E-2,1.128375530E-3,-3.134441376E-2
1.223691823E1,-1.340737939E-2,2.301684022E-2,-1.452350616E-2
1.224708058E1,1.284611225E-2,4.505172372E-2,1.661109924E-2
1.225724293E1,2.701514959E-2,6.470119953E-2,2.615928650E-2
1.226740529E1,2.658736706E-2,6.757855415E-2,2.848339081E-2
1.227756764E1,4.454135895E-3,6.805735826E-2,2.365684509E-2
1.228772999E1,-3.907844424E-2,4.953306913E-2,2.838516235E-2
1.229789235E1,-6.743025780E-2,4.030987620E-2,4.239368439E-2
1.230805470E1,-4.758974910E-2,2.351668477E-2,1.558399200E-2
1.231821705E1,-4.032617807E-2,4.919567704E-2,-8.617687225E-2
1.232837941E1,-4.073995352E-2,7.214248180E-2,1.208925247E-1
1.233854176E1,-5.719703436E-2,8.906865120E-2,9.489440918E-2
1.234873463E1,-6.359902024E-2,8.652874827E-2,-1.030330658E-1
1.235889699E1,-8.049249649E-3,6.666639447E-2,-2.098207474E-1
1.236905934E1,4.192265868E-2,4.685989022E-2,-4.289150238E-2
1.237922169E1,1.053971052E-2,4.162701964E-2,8.064365387E-2
1.238938405E1,-1.358100772E-2,4.219952226E-2,-2.233028412E-2
1.239954640E1,-1.164653897E-2,4.477897286E-2,-7.617950439E-2
1.240970875E1,-9.679883718E-3,7.854431868E-2,1.027774811E-2
1.241987111E1,-2.181681991E-2,1.000448465E-1,6.449317932E-2
1.243003346E1,-1.244410872E-2,1.183822155E-1,7.046699524E-2
1.244019581E1,-1.273918152E-2,1.078653038E-1,6.460666656E-2
1.245035817E1,-1.066195965E-2,1.028249860E-1,4.471111298E-2
1.246055104E1,8.746981621E-4,7.002291083E-2,5.824470520E-2
1.247071339E1,1.822710037E-4,4.965326190E-2,8.570098877E-2
1.248087575E1,-7.882446051E-3,2.874851227E-2,6.762409210E-2
1.249103810E1,-2.294909954E-2,3.111699224E-2,-3.757858276E-2
1.250120045E1,-3.027302027E-2,3.391209245E-2,-1.125097275E-1
1.251136281E1,-3.242531419E-2,4.262495041E-2,-7.493114471E-2
1.252152516E1,-2.733352780E-2,3.772103786E-2,4.401206970E-3
1.253168751E1,-3.902202845E-2,3.258508444E-2,6.814956665E-3
1.254184987E1,-5.762133002E-2,4.386398196E-2,-5.079269409E-3
1.255201222E1,-7.555186749E-2,5.072057247E-2,-2.145195007E-2
1.256217457E1,-6.939461827E-2,5.119308829E-2,-1.372718811E-2
1.257233693E1,-6.076866388E-2,5.928421021E-2,-3.823280334E-3
1.258252980E1,-4.515242577E-2,4.355302453E-2,8.260726929E-3
1.259269215E1,-3.933829069E-2,4.428797960E-2,8.276939392E-3
1.260285451E1,-3.133961558E-2,4.951530695E-2,-1.106262207E-3
1.261301686E1,-4.238125682E-2,5.715200305E-2,3.811836243E-3
1.262317921E1,-4.140397906E-2,7.216474414E-2,1.817703247E-2
1.263334157E1,-3.327581286E-2,7.763350010E-2,1.099205017E-2
1.264350392E1,-1.106831431E-2,7.359531522E-2,2.762985229E-2
1.265366627E1,-8.187741041E-3,5.996319652E-2,3.685760498E-2
1.266382863E1,-5.219638348E-3,5.568161607E-2,3.168296814E-2
1.267399098E1,2.484619617E-3,4.669350386E-2,3.130340576E-2
1.268415333E1,7.798790932E-3,5.446442962E-2,9.732246399E-3
1.269431569E1,8.401930332E-3,5.048108101E-2,-1.859283447E-2
1.270447804E1,-1.923227310E-2,4.666736722E-2,-4.398155212E-2
1.271464039E1,-4.384237528E-2,5.739897490E-2,-5.243301392E-2
1.272480275E1,-5.346119404E-2,5.172502995E-2,-5.120563507E-2
1.273499562E1,-2.032107115E-2,4.643219709E-2,1.623725891E-2
1.274515797E1,2.349472046E-2,3.138428926E-2,1.083965302E-1
1.275532033E1,-1.130700111E-4,2.723532915E-2,6.878089905E-2
1.276548268E1,-1.641145349E-2,5.591332912E-2,-1.243877411E-2
1.277564503E1,-1.399469376E-2,6.113606691E-2,5.427455902E-2
1.278580739E1,-6.205040216E-2,7.822370529E-2,5.811023712E-2
1.279596974E1,-1.308824420E-1,9.751754999E-2,-6.814002991E-2
1.280613209E1,-1.542353630E-1,1.109026074E-1,-4.307327271E-1
1.281629445E1,-9.497225285E-3,7.090610266E-2,-3.442354202E-1
1.282645680E1,1.780809164E-1,-6.813824177E-3,4.193964005E-1
1.283661915E1,1.398696005E-1,-4.598486423E-2,5.338792801E-1
1.284678151E1,1.466006041E-2,-4.012578726E-2,-9.884262085E-2
1.285694386E1,-3.647533059E-2,7.017135620E-3,-3.807487488E-1
1.286713673E1,-6.937408447E-2,3.685683012E-2,-2.908639908E-1
1.287729909E1,-2.913776040E-2,2.966254950E-2,5.010128021E-2
1.288746144E1,2.856147289E-2,1.699560881E-2,1.958379745E-1
1.289762379E1,8.548736572E-3,2.876704931E-2,1.287288666E-1
1.290778615E1,-3.687506914E-2,7.498788834E-2,3.683090210E-2
1.291794850E1,-8.457216620E-2,1.227403283E-1,-3.768920898E-3
1.292811085E1,-1.105965972E-1,1.631821394E-1,-2.695465088E-2
1.293827321E1,-9.629338980E-2,1.577823758E-1,-2.098083496E-5
1.294843556E1,-6.119224429E-2,1.203004718E-1,5.010700226E-2
1.295859791E1,-1.746577024E-2,7.653671503E-2,6.628322601E-2
1.296876027E1,1.334530115E-2,2.603399754E-2,3.721332550E-2
1.297892262E1,1.974889636E-2,6.333470345E-3,1.614570618E-3
1.298908497E1,1.154211164E-2,-1.389378309E-2,-4.024505615E-4
1.299924733E1,-5.884706974E-3,-1.839411259E-2,1.876449585E-2
1.300944020E1,-6.272584200E-3,-1.906120777E-2,-2.613067627E-4
1.301960255E1,-1.342287660E-2,-8.228957653E-3,2.371788025E-3
1.302976491E1,7.949769497E-4,2.131766081E-2,4.038906097E-2
1.303992726E1,2.197444439E-2,3.362387419E-2,6.819820404E-2
1.305008961E1,2.617490292E-2,4.048764706E-2,3.876495361E-2
1.306025197E1,-6.383955479E-4,4.238694906E-2,5.268096924E-3
1.307041432E1,-2.456840873E-2,3.506273031E-2,5.334854126E-3
1.308057667E1,-4.562726617E-2,3.012520075E-2,3.853034973E-2
1.309073903E1,-2.381992340E-2,3.201383352E-2,-3.320217133E-2
1.310090138E1,-1.238304377E-2,4.123395681E-2,-3.904628754E-2
1.311106373E1,-2.568319440E-2,6.444764137E-2,1.340417862E-1
1.312122609E1,-6.647408009E-2,6.999170780E-2,-5.413055420E-3
1.313138844E1,-3.714799881E-2,6.421893835E-2,-1.279487610E-1
1.314155080E1,2.521619201E-2,4.560601711E-2,-9.708499908E-2
1.315171315E1,3.871163726E-2,3.948295116E-2,-5.736255646E-2
1.316190602E1,1.583525538E-2,4.467070103E-2,2.896308899E-3
1.317206837E1,-1.844966412E-2,4.638582468E-2,1.708412170E-2
1.318223073E1,-2.615606785E-2,6.187224388E-2,-2.568531036E-2
1.319239308E1,-1.006680727E-2,7.972460985E-2,1.038932800E-2
1.320255543E1,3.548979759E-3,9.020984173E-2,7.418823242E-2
1.321271779E1,-1.826792955E-3,9.498590231E-2,9.900188446E-2
1.322288014E1,2.416163683E-3,9.425604343E-2,7.845306396E-2
1.323304249E1,1.364833117E-2,7.955807447E-2,4.409599304E-2
1.324320485E1,8.101940155E-3,4.905337095E-2,2.930355072E-2
1.325336720E1,-9.362995625E-3,2.384173870E-2,5.014705658E-2
1.326352955E1,-1.945716143E-2,1.756876707E-2,9.113311768E-3
1.327369191E1,-4.566940665E-2,1.586747169E-2,-6.902790070E-2
1.328385426E1,-5.461245775E-2,1.232373714E-2,-9.842586517E-2
1.329404713E1,-3.731164336E-2,1.663905382E-2,-2.097129822E-2
1.330420949E1,-4.390302300E-2,1.102668047E-2,4.087734222E-2
1.331437184E1,-3.866773844E-2,2.146667242E-2,2.373409271E-2
1.332453419E1,-4.304164648E-2,2.005374432E-2,-2.578735352E-3
1.333469655E1,-6.403681636E-2,3.558874130E-2,-1.425933838E-2
1.334485890E1,-6.365910172E-2,3.699201345E-2,-2.572631836E-2
1.335502125E1,-6.323647499E-2,3.614586592E-2,-3.224086761E-2
1.336518361E1,-5.553969741E-2,3.257703781E-2,-1.969242096E-2
1.337534596E1,-3.830990195E-2,5.007559061E-2,2.326011658E-2
1.338550831E1,-3.314092755E-2,4.783427715E-2,4.184341431E-2
1.339567067E1,-1.845541596E-2,5.478692055E-2,4.590225220E-2
1.340583302E1,-8.712202311E-3,6.135725975E-2,4.277706146E-2
1.341599538E1,-1.091483235E-2,6.551730633E-2,1.837730408E-2
1.342615773E1,-5.917638540E-3,5.796778202E-2,-2.212905884E-2
1.343632008E1,-5.654633045E-3,4.372245073E-2,-5.004405975E-2
1.344651295E1,-1.471662521E-2,3.714114428E-2,-7.747173309E-2
1.345667531E1,-2.314430475E-2,2.113556862E-2,-6.423187256E-2
1.346683766E1,-5.000263453E-3,1.698821783E-2,5.528450012E-3
1.347700001E1,1.951390505E-2,9.860277176E-3,6.926631927E-2
1.348716237E1,2.436220646E-2,2.329778671E-2,3.254604340E-2
1.349732472E1,5.181938410E-3,4.824119806E-2,-3.399848938E-3
1.350748707E1,-1.431694627E-2,6.132417917E-2,7.467746735E-2
1.351764943E1,-4.839998484E-2,5.263793468E-2,8.263683319E-2
1.352781178E1,-9.166997671E-2,6.504589319E-2,-1.106452942E-2
1.353797413E1,-1.212626100E-1,4.996514320E-2,-3.328256607E-1
1.354816701E1,-5.272081494E-2,3.542369604E-2,-4.634332657E-1
1.355832936E1,1.432012320E-1,-2.420562506E-2,3.329467773E-1
1.356849171E1,1.293282211E-1,-4.762327671E-2,4.295415878E-1
1.357865407E1,3.033792973E-2,-1.834672689E-2,-1.141700745E-1
1.358881642E1,-3.865763545E-2,1.239043474E-2,-2.188882828E-1
1.359897877E1,-9.926113486E-2,2.909606695E-2,-1.465349197E-1
1.360914113E1,-5.994537473E-2,2.432650328E-2,2.299308777E-3
1.361930348E1,4.969447851E-3,2.145093679E-2,5.167198181E-2
1.362946583E1,1.608026028E-2,3.017985821E-2,6.471633911E-2
1.363962819E1,-4.087933898E-2,5.233734846E-2,2.544212341E-2
1.364979054E1,-9.033426642E-2,1.064738631E-1,-3.894710541E-2
1.365998341E1,-1.087610424E-1,1.341631413E-1,-3.586769104E-2
1.367014577E1,-8.717101812E-2,1.345535517E-1,2.152919769E-2
1.368030812E1,-5.253729224E-2,1.090574861E-1,7.791423798E-2
1.369047047E1,6.546229124E-3,7.391649485E-2,1.096429825E-1
1.370063283E1,5.914109945E-2,4.074394703E-2,1.004934311E-1
1.371079518E1,6.319928169E-2,-2.943277359E-4,5.600452423E-2
1.372095753E1,4.812821746E-2,-1.357358694E-2,1.927947998E-2
1.373111989E1,2.626636624E-2,-6.452143192E-3,-2.687454224E-3
1.374128224E1,7.454335690E-3,6.794512272E-3,-3.122329712E-3
1.375144459E1,-3.468334675E-3,1.712214947E-2,-1.301479340E-2
1.376160695E1,2.721637487E-3,1.576232910E-2,3.369331360E-3
1.377176930E1,-2.799451351E-3,4.565393925E-2,2.892494202E-2
1.378196217E1,5.878895521E-3,4.204708338E-2,3.516197205E-2
1.379212452E1,-1.893749833E-2,5.037856102E-2,2.235603333E-2
1.380228688E1,-3.627994657E-2,5.879706144E-2,-6.690979004E-3
1.381244923E1,-6.488472223E-2,5.764228106E-2,-1.866912842E-2
1.382261159E1,-5.045151711E-2,2.824139595E-2,-3.535366058E-2
1.383277394E1,-2.762448788E-2,3.944540024E-2,-5.362033844E-2
1.384293629E1,-3.209012747E-2,4.554075003E-2,1.098308563E-1
1.385309865E1,-5.940943956E-2,5.783218145E-2,3.405666351E-2
1.386326100E1,-6.445050240E-2,6.040853262E-2,-1.252288818E-1
1.387342335E1,-8.150935173E-5,5.717402697E-2,-1.563005447E-1
1.388358571E1,3.038850427E-2,4.094642401E-2,-8.535575867E-2
1.389374806E1,1.517552137E-2,2.985465527E-2,-3.924751282E-2
1.390391041E1,-2.110326290E-2,2.324259281E-2,-1.008987427E-3
1.391410329E1,-4.248335958E-2,3.067159653E-2,-2.481555939E-2
1.392426564E1,-1.843750477E-2,4.053336382E-2,-5.654335022E-3
1.393442799E1,7.668256760E-3,8.827316761E-2,4.392051697E-2
1.394459035E1,1.885056496E-2,9.722572565E-2,1.115045547E-1
1.395475270E1,-1.064443588E-2,1.054813266E-1,8.331871033E-2
1.396491505E1,-3.027933836E-2,1.019405127E-1,3.671646118E-3
1.397507741E1,-2.110937238E-2,8.292058110E-2,-8.321762085E-3
1.398523976E1,-7.321417332E-3,6.753215194E-2,5.551528931E-2
1.399540211E1,-8.128583431E-4,4.258093238E-2,6.142520905E-2
1.400556447E1,-1.331922412E-2,2.649086714E-2,-3.683090210E-3
1.401572682E1,-3.016290069E-2,1.736590266E-2,-6.528282166E-2
1.402588917E1,-2.543264627E-2,2.070084214E-2,-6.193256378E-2
1.403605153E1,-1.361680031E-2,1.758304238E-2,-3.034114838E-2
1.404621388E1,-1.634934545E-2,3.378102183E-2,7.749557495E-3
1.405637623E1,-3.339073062E-2,4.238438606E-2,9.764671326E-3
1.406656911E1,-6.204652786E-2,4.869696498E-2,-2.363491058E-2
1.407673146E1,-5.930462480E-2,5.550482869E-2,-3.990268707E-2
1.408689381E1,-4.690340161E-2,7.011616230E-2,-2.980041504E-2
1.409705617E1,-4.172986746E-2,6.364291906E-2,6.120681763E-3
1.410721852E1,-1.769784093E-2,5.470919609E-2,2.008914948E-2
1.411738087E1,-1.523077488E-2,5.517882109E-2,1.496887207E-2
1.412754323E1,-1.518517733E-2,4.607048631E-2,-4.288673401E-3
1.413770558E1,-1.744446158E-2,4.191640019E-2,1.701545715E-2
1.414786793E1,-1.958218217E-2,4.974687099E-2,4.739379883E-2
1.415803029E1,-5.213141441E-3,6.413370371E-2,5.597209930E-2
1.416819264E1,-2.827078104E-3,6.849288940E-2,3.361701965E-2
1.417835499E1,-1.925623417E-2,6.334868073E-2,-2.853679657E-2
1.418851735E1,-2.577358484E-2,5.426460505E-2,-7.298183441E-2
1.419867970E1,-4.835975170E-2,5.085331202E-2,-7.167434692E-2
1.420887257E1,-3.254744411E-2,3.159171343E-2,-2.067947388E-2
1.421903492E1,3.943145275E-3,2.423891425E-2,7.903289795E-2
1.422919728E1,2.976125479E-2,1.844716072E-2,1.177673340E-1
1.423935963E1,5.099087954E-3,2.824732661E-2,1.394081116E-2
1.424952199E1,-1.210564375E-2,6.670054793E-2,-4.060268402E-2
1.425968434E1,-2.229470015E-2,8.659374714E-2,2.579689026E-3
1.426984669E1,-7.531017065E-2,8.554303646E-2,1.183032990E-2
1.428000905E1,-1.551308930E-1,8.511447906E-2,-2.630643845E-1
1.429017140E1,-1.128534675E-1,7.304063439E-2,-4.350824356E-1
1.430033375E1,8.658072352E-2,3.865677118E-2,6.501674652E-2
1.431049611E1,2.005226612E-1,-3.748953342E-3,8.178834915E-1
1.432065846E1,7.466927171E-2,-8.217394352E-4,3.398656845E-1
1.433082081E1,-2.107259631E-2,4.358810186E-2,-1.412286758E-1
1.434098317E1,-1.226724982E-1,7.440844178E-2,-5.899705887E-1
1.435117604E1,-1.220862269E-1,7.896977663E-2,-4.472503662E-1
1.436133839E1,8.546710014E-4,2.941060066E-2,2.981472015E-2
1.437150075E1,3.789588809E-2,-2.564764023E-2,2.713050842E-1
1.438166310E1,1.231348515E-2,-4.332932830E-2,1.845417023E-1
1.439182545E1,-2.119219303E-2,5.802422762E-3,6.444644928E-2
1.440198781E1,-6.965965033E-2,8.474498987E-2,-7.519721985E-3
1.441215016E1,-8.695411682E-2,1.492176354E-1,2.116203308E-2
1.442231251E1,-6.328430772E-2,1.789629161E-1,4.981708527E-2
1.443247487E1,-4.424828291E-2,1.636308134E-1,4.977226257E-2
1.444263722E1,-1.569437981E-2,1.436114311E-1,4.734420776E-2
1.445279957E1,-4.145711660E-3,8.043712378E-2,3.772068024E-2
1.446299245E1,-1.672267914E-2,3.369522095E-2,1.816749573E-3
1.447315480E1,-3.160145879E-2,1.040768623E-2,-1.968860626E-2
1.448331715E1,-4.137980938E-2,1.549145579E-2,-2.918815613E-2
1.449347951E1,-2.694275975E-2,2.055099607E-2,-2.671718597E-2
1.450364186E1,-7.607668638E-3,3.070306778E-2,1.163005829E-2
1.451380421E1,2.117550373E-2,4.549351335E-2,3.791809082E-2
1.452396657E1,1.849168539E-2,7.210463285E-2,4.021930695E-2
1.453412892E1,1.316139102E-2,7.217085361E-2,2.337646484E-2
1.454429127E1,-1.615086198E-2,7.483428717E-2,1.377773285E-2
1.455445363E1,-3.570443392E-2,6.086957455E-2,2.568817139E-2
1.456461598E1,-3.080675006E-2,3.921115398E-2,4.681205750E-2
1.457477833E1,-2.351155877E-2,2.673298120E-2,-5.345439911E-2
1.458494069E1,-1.933148503E-2,4.977434874E-2,2.278327942E-3
1.459513356E1,-3.631955385E-2,7.453766465E-2,1.437721252E-1
1.460529591E1,-6.203943491E-2,8.617174625E-2,1.815128326E-2
1.461545827E1,-4.458513856E-2,8.147203922E-2,-1.995506287E-1
1.462562062E1,5.984246731E-3,7.432517409E-2,-1.651058197E-1
1.463578297E1,2.719950676E-2,6.136387587E-2,3.863525391E-2
1.464594533E1,-2.070876956E-2,4.299545288E-2,3.782272339E-2
1.465610768E1,-9.013861418E-3,3.563547134E-2,-4.548835754E-2
1.466627003E1,2.337634563E-3,5.718356371E-2,-3.040504456E-2
1.467643239E1,-7.581442595E-3,8.811613917E-2,4.102802277E-2
1.468659474E1,-1.028323174E-2,1.041888297E-1,7.104682922E-2
1.469675709E1,-1.313266158E-2,1.028958559E-1,6.986427307E-2
1.470691945E1,-2.069315314E-2,9.216743708E-2,5.454063416E-2
1.471708180E1,-6.869196892E-3,8.430939913E-2,4.413604736E-2
1.472724415E1,1.381489635E-2,5.783545971E-2,4.817771912E-2
1.473740651E1,2.217221260E-2,3.842154145E-2,7.100868225E-2
1.474756886E1,1.839512587E-2,3.486704826E-2,3.898334503E-2
1.475773122E1,-1.116439700E-2,3.344100714E-2,-5.398464203E-2
1.476789357E1,-3.517279029E-2,4.921346903E-2,-1.050195694E-1
1.477808644E1,-3.254914284E-2,5.622625351E-2,-5.349254608E-2
1.478824879E1,-3.243049979E-2,4.940187931E-2,8.858680725E-3
1.479841115E1,-3.473183513E-2,3.035491705E-2,2.040672302E-2
1.480857350E1,-4.649031162E-2,3.974601626E-2,-1.305866241E-2
1.481873585E1,-6.284463406E-2,4.931455851E-2,-4.830741882E-2
1.482889821E1,-7.409071922E-2,5.016207695E-2,-2.378177643E-2
1.483906056E1,-7.546699047E-2,6.320577860E-2,-9.086608887E-3
1.484922291E1,-3.898122907E-2,6.196996570E-2,5.297660828E-3
1.485938521E1,-2.665260434E-2,7.965356112E-2,9.999275208E-3
1.486954757E1,-2.151930332E-2,6.416943669E-2,1.468944550E-2
1.487974044E1,-3.070789576E-2,5.854603648E-2,1.691627502E-2
1.488990279E1,-3.020623326E-2,5.549123883E-2,7.272720337E-3
1.490006515E1,-2.024203539E-2,6.208878756E-2,1.674365997E-2
1.491022750E1,-1.270833611E-2,6.863448024E-2,4.503154755E-2
1.492038985E1,-3.831088543E-4,7.718375325E-2,5.621719360E-2
1.493055221E1,1.414373517E-2,6.407937407E-2,4.124736786E-2
1.494071456E1,1.441240311E-2,7.465937734E-2,-1.863479614E-3
1.495087691E1,-1.101914048E-2,5.689841509E-2,-3.719806671E-2
1.496103927E1,-2.400103211E-2,4.219219089E-2,-6.241416931E-2
1.497120162E1,-5.314376950E-2,3.517881036E-2,-6.589794159E-2
1.498136397E1,-4.124146700E-2,3.096243739E-2,-4.801273346E-2
1.499152633E1,-8.508145809E-3,2.710747719E-2,3.583431244E-2
1.500168868E1,1.598951221E-2,3.922265768E-2,1.204452515E-1
1.501185103E1,2.005666494E-3,5.493795872E-2,5.216026306E-2
1.502204390E1,-1.666027308E-2,8.224564791E-2,-2.175045013E-2
1.503220626E1,-1.177626848E-2,8.629658818E-2,4.500770569E-2
1.504236861E1,-7.623097301E-2,9.768855572E-2,3.483963013E-2
1.505253096E1,-1.205548346E-1,9.286281466E-2,-1.550865173E-1
1.506269332E1,-1.263716221E-1,9.282857180E-2,-4.804687500E-1
1.507285567E1,3.522816300E-2,4.753428698E-2,-1.756000519E-1
1.508301803E1,2.005996704E-1,-2.255034447E-2,6.177377701E-1
1.509318038E1,1.138643324E-1,-3.400820494E-2,3.816556931E-1
1.510334273E1,5.037933588E-3,4.841446877E-3,-1.279478073E-1
1.511350509E1,-9.317454696E-2,4.757165909E-2,-4.448261261E-1
1.512369796E1,-1.031980515E-1,6.405973434E-2,-3.135881424E-1
1.513386031E1,-2.586188912E-2,3.459280729E-2,7.273578644E-2
1.514402266E1,2.076160908E-2,2.034068108E-3,2.346735001E-1
1.515418502E1,-5.943566561E-3,8.267462254E-3,1.434011459E-1
1.516434737E1,-3.529581428E-2,5.896657705E-2,4.516410828E-2
1.517450972E1,-7.974025607E-2,1.214052439E-1,1.179504395E-2
1.518467208E1,-1.028591394E-1,1.719635129E-1,2.405261993E-2
1.519483443E1,-9.022164345E-2,1.807141304E-1,4.110050201E-2
1.520499679E1,-5.872189999E-2,1.588789821E-1,4.858875275E-2
1.521515914E1,-2.513870597E-2,1.157290936E-1,5.127906799E-2
1.522532149E1,-3.872185946E-3,5.803036690E-2,4.438304901E-2
1.523548385E1,-9.203672409E-3,1.641452312E-2,1.355743408E-2
1.524564620E1,-9.895205498E-3,-6.867945194E-3,-5.025863647E-4
1.525583907E1,-5.862265825E-3,-9.453773499E-3,-5.032539368E-3
1.526597091E1,-1.345571876E-2,1.638591290E-3,2.371788025E-3
1.527616378E1,8.201003075E-4,1.018512249E-2,4.981994629E-3
1.528632613E1,8.026063442E-3,3.303664923E-2,3.149509430E-2
1.529648849E1,1.269435883E-2,5.357521772E-2,4.120540619E-2
1.530665084E1,-2.020478249E-3,7.150751352E-2,4.372119904E-2
1.531681319E1,-2.378863096E-2,7.615870237E-2,3.844928741E-2
1.532697555E1,-4.985260963E-2,6.654661894E-2,3.335762024E-2
1.533713790E1,-4.697266221E-2,4.034906626E-2,6.610679626E-2
1.534730025E1,-3.723013401E-2,1.867133379E-2,-4.622364044E-2
1.535746261E1,-2.356046438E-2,2.812564373E-2,5.449295044E-2
1.536762496E1,-4.321402311E-2,6.080228090E-2,1.454486847E-1
1.537778731E1,-7.120802999E-2,7.102918625E-2,-5.317211151E-2
1.538794967E1,-2.245253325E-2,7.506394386E-2,-1.559505463E-1
1.539811202E1,2.331247926E-2,5.936652422E-2,-1.104068756E-1
1.540827437E1,2.031394839E-2,5.332714319E-2,-2.790164948E-2
1.541846724E1,-1.862347126E-3,6.051421165E-2,1.523303986E-2
1.542862960E1,-1.905256510E-2,5.480462313E-2,-1.806068420E-2
1.543879195E1,-2.655941248E-2,7.064718008E-2,-2.460861206E-2
1.544895430E1,-8.885562420E-4,9.610247612E-2,2.566814423E-2
1.545911666E1,-8.452385664E-3,1.138897538E-1,7.968425751E-2
1.546927901E1,-1.568990946E-2,1.047922969E-1,7.848167419E-2
1.547944137E1,1.264739037E-2,9.348815680E-2,7.264614105E-2
1.548960372E1,9.857803583E-3,8.957719803E-2,6.446552277E-2
1.549976607E1,4.676073790E-3,7.428771257E-2,4.707145691E-2
1.550992843E1,-2.889454365E-3,6.632268429E-2,3.932571411E-2
1.552012130E1,-1.514574885E-2,4.155391455E-2,9.279251099E-4
1.553028365E1,-2.935147285E-2,3.584718704E-2,-6.505012512E-2
1.554044600E1,-4.559776187E-2,2.591669559E-2,-8.503437042E-2
1.555060836E1,-4.024371505E-2,1.220387220E-2,-3.610706329E-2
1.556077071E1,-4.426115751E-2,8.132636547E-3,1.674556732E-2
1.557093306E1,-4.355561733E-2,2.718997002E-2,4.970836639E-2
1.558109542E1,-4.761198163E-2,3.142005205E-2,4.194545746E-2
1.559125777E1,-6.815627217E-2,4.974490404E-2,1.303100586E-2
1.560142012E1,-6.240224838E-2,6.119042635E-2,-1.529884338E-2
1.561158248E1,-5.933454633E-2,4.896032810E-2,-2.425193787E-2
1.562174483E1,-4.940423369E-2,5.597001314E-2,-1.419067383E-2
1.563190719E1,-4.888808727E-2,5.771976709E-2,-2.017021179E-3
1.564206954E1,-3.877669573E-2,5.179184675E-2,2.172374725E-2
1.565226241E1,-1.449447870E-2,5.743604898E-2,4.750347137E-2
1.566242476E1,-4.691362381E-3,6.733930111E-2,5.864048004E-2
1.567258712E1,-4.544585943E-3,8.170664310E-2,3.172492981E-2
1.568274947E1,-4.117935896E-3,7.706850767E-2,-1.365566254E-2
1.569291183E1,-1.766625047E-2,8.007740974E-2,-4.870128632E-2
1.570307418E1,-3.552374244E-2,6.233751774E-2,-8.544921875E-2
1.571323653E1,-4.325714707E-2,4.282337427E-2,-6.243228912E-2
1.572339889E1,-2.243489027E-2,3.563952446E-2,-1.140499115E-2
1.573356124E1,2.127468586E-2,1.389676332E-2,7.646751404E-2
1.574372359E1,1.895901561E-2,2.930259705E-2,7.511234283E-2
1.575388595E1,-4.684269428E-3,5.583018064E-2,-1.670837402E-3
1.576404830E1,-1.199635863E-2,6.826144457E-2,5.294418335E-2
1.577421065E1,-5.298417807E-2,7.587456703E-2,7.800960541E-2
1.578440352E1,-8.398896456E-2,8.573400974E-2,1.764774323E-2
1.579456588E1,-1.111747026E-1,7.501953840E-2,-2.807321548E-1
1.580472823E1,-6.161141396E-2,4.343533516E-2,-4.548320770E-1
1.581489058E1,1.109032929E-1,3.757476807E-4,2.307014465E-1
1.582505294E1,1.260930598E-1,-3.917717934E-2,4.806060791E-1
1.583521529E1,3.468906879E-2,-2.389085293E-2,-9.939002991E-2
1.584537765E1,-1.505219936E-2,7.060706615E-3,-2.205972672E-1
1.585554000E1,-9.244236350E-2,2.936774492E-2,-1.953592300E-1
1.586570235E1,-6.503760815E-2,4.975199699E-2,-4.057884216E-2
1.587586471E1,-4.712045193E-3,4.383522272E-2,4.528999329E-2
1.588602706E1,-7.028251886E-3,4.243457317E-2,4.217815399E-2
1.589618941E1,-5.352520943E-2,8.567404747E-2,2.728557587E-2
1.590635177E1,-1.113237739E-1,1.253679991E-1,-3.703117371E-3
1.591654464E1,-1.194292903E-1,1.534064412E-1,-7.892608643E-3
1.592670699E1,-9.287142754E-2,1.572661400E-1,4.008579254E-2
1.593686934E1,-6.282874942E-2,1.381513476E-1,8.010292053E-2
1.594703170E1,-2.677574754E-2,9.548878670E-2,1.004886627E-1
1.595719405E1,1.014053822E-3,4.093414545E-2,8.505916595E-2
1.596735640E1,2.826637030E-2,2.714157104E-3,4.376220703E-2
1.597751876E1,2.890259027E-2,-2.200853825E-2,-3.999710083E-3
1.598768111E1,1.995590329E-2,-2.614146471E-2,-1.420974731E-3
1.599784346E1,1.605099440E-2,1.803278923E-3,5.802154541E-3
1.600800582E1,3.113806248E-3,1.950466633E-2,-6.073951721E-3
1.601816817E1,4.985779524E-3,2.302706242E-2,5.961418152E-3
1.602833053E1,9.340703487E-3,4.091650248E-2,3.673458099E-2
1.603849288E1,6.484806538E-3,5.374485254E-2,4.798412323E-2
1.604865523E1,-1.294139028E-2,4.715067148E-2,4.721736908E-2
1.605884810E1,-2.737757564E-2,4.039609432E-2,2.759265900E-2
1.606901046E1,-3.904083371E-2,2.408307791E-2,3.906822205E-2
1.607917281E1,-3.879350424E-2,2.418255806E-2,-4.927539825E-2
1.608933516E1,-1.333564520E-2,4.105132818E-2,3.011798859E-2
1.609949752E1,-2.498996258E-2,5.748188496E-2,1.473751068E-1
1.610965987E1,-4.724535346E-2,6.584441662E-2,-4.437446594E-2
1.611982222E1,-1.875704527E-2,4.887413979E-2,-1.284179688E-1
1.612998458E1,2.615845203E-2,4.284346104E-2,-4.096031189E-2
1.614014693E1,2.983349562E-2,3.398138285E-2,-2.377986908E-2
1.615030929E1,5.140781403E-3,4.359358549E-2,-5.641651154E-2
1.616047164E1,-3.803247213E-2,4.368680716E-2,-1.043510437E-2
1.617063399E1,-1.879602671E-2,5.080282688E-2,1.336479187E-2
1.618079635E1,2.450048923E-3,5.967044830E-2,2.732944489E-2
1.619098922E1,2.023905516E-3,6.743192673E-2,6.468963623E-2
1.620115157E1,8.593857288E-3,6.460696459E-2,8.230209351E-2
1.621131392E1,3.083497286E-3,7.292187214E-2,6.409740448E-2
1.622147628E1,6.082653999E-5,4.994273186E-2,2.258968353E-2
1.623163863E1,1.974582672E-3,2.740508318E-2,1.024818420E-2
1.624180098E1,-7.896184921E-3,2.846288681E-2,4.291725159E-2
1.625196334E1,-1.068255305E-2,3.113126755E-2,4.416847229E-2
1.626212569E1,-3.001394868E-2,2.097839117E-2,-1.136302948E-2
1.627228804E1,-4.184523225E-2,2.248591185E-2,-6.827068329E-2
1.628245040E1,-3.699421883E-2,1.704478264E-2,-6.035423279E-2
1.629261275E1,-3.712290525E-2,1.664388180E-2,-1.011371613E-2
1.630277511E1,-5.145290494E-2,2.052778006E-2,2.507019043E-2
1.631296798E1,-5.130171776E-2,3.794068098E-2,2.183151245E-2
1.632313033E1,-4.641193151E-2,4.552197456E-2,-1.441574097E-2
1.633329268E1,-5.102404952E-2,4.373472929E-2,-3.115177155E-2
1.634345504E1,-4.846021533E-2,5.166572332E-2,-2.868080139E-2
1.635361739E1,-4.837426543E-2,4.757738113E-2,-3.328132629E-2
1.636377975E1,-3.638193011E-2,3.861886263E-2,2.412796021E-3
1.637394210E1,-1.271107793E-2,4.333877563E-2,5.391883850E-2
1.638410445E1,1.285612583E-3,5.432373285E-2,9.263134003E-2
1.639426680E1,1.964628696E-2,6.190091372E-2,5.740642548E-2
1.640442916E1,9.208410978E-3,5.747383833E-2,-1.973152161E-2
1.641459151E1,6.182193756E-3,5.593907833E-2,-8.608627319E-2
1.642475387E1,-6.111294031E-3,4.112344980E-2,-1.039428711E-1
1.643491622E1,-2.273482084E-2,3.205657005E-2,-7.657527924E-2
1.644507857E1,-1.499474049E-3,2.819752693E-2,-1.178359985E-2
1.645524093E1,1.143813133E-4,1.711434126E-2,5.418395996E-2
1.646540328E1,-1.733094454E-2,3.170698881E-2,3.091812134E-3
1.647559615E1,-2.252072096E-2,5.304282904E-2,-6.711006165E-3
1.648575850E1,-3.006619215E-2,6.982773542E-2,4.502296448E-2
1.649592086E1,-9.259396791E-2,8.684325218E-2,1.541042328E-2
1.650608321E1,-1.445227265E-1,9.746789932E-2,-2.503681183E-1
1.651624557E1,-1.409036219E-1,9.241694212E-2,-6.074562073E-1
1.652640792E1,3.333890438E-2,5.707252026E-2,-1.631870270E-1
1.653657027E1,1.869459748E-1,-1.100552082E-2,8.580379486E-1
1.654673262E1,8.462759852E-2,-2.732360363E-2,4.061861038E-1
1.655689498E1,8.100569248E-3,4.281103611E-3,-3.278923035E-2
1.656705733E1,-8.501583338E-2,5.223125219E-2,-5.350847244E-1
1.657721969E1,-9.039598703E-2,6.585031748E-2,-4.764118195E-1
1.658738204E1,1.006841660E-2,1.601415873E-2,-9.089469910E-3
1.659754439E1,5.413076282E-2,-4.157763720E-2,2.227039337E-1
1.660773726E1,3.378269076E-2,-2.777248621E-2,1.669101715E-1
1.661789962E1,-3.213119507E-2,3.639310598E-2,4.903793335E-2
1.662806197E1,-9.862425923E-2,1.023693681E-1,1.518440247E-2
1.663822432E1,-1.078790724E-1,1.830515862E-1,5.085849762E-2
1.664838668E1,-9.354475141E-2,2.052813768E-1,8.411979675E-2
1.665854903E1,-7.482343912E-2,1.969691515E-1,7.428073883E-2
1.666871138E1,-3.249645233E-2,1.554801464E-1,6.687450409E-2
1.667887374E1,-2.378523350E-3,1.024392843E-1,5.948638916E-2
1.668903609E1,1.329445839E-2,5.405473709E-2,3.061676025E-2
1.669919845E1,4.885435104E-3,2.900055051E-2,-1.974105835E-2
1.670939132E1,1.437783241E-3,1.764580607E-2,-5.326938629E-2
1.671955367E1,-6.401509047E-3,1.822191477E-2,-3.890991211E-2
1.672971602E1,-9.185373783E-3,3.080129623E-2,1.364994049E-2
1.673987838E1,7.181286812E-3,5.526500940E-2,4.935741425E-2
1.675004073E1,6.612926722E-3,6.769052148E-2,5.151271820E-2
1.676020308E1,8.196234703E-3,7.300305367E-2,3.692531586E-2
1.677036544E1,2.558112144E-3,8.319708705E-2,2.239894867E-2
1.678052779E1,-3.391972184E-2,7.698813081E-2,1.270389557E-2
1.679069015E1,-3.380182385E-2,5.153027177E-2,5.049705505E-2
1.680085250E1,-2.907350659E-2,4.473382235E-2,-4.754829407E-2
1.681101485E1,-2.795505524E-2,4.510760307E-2,5.990695953E-2
1.682117720E1,-4.539698362E-2,4.957497120E-2,1.246500015E-1
1.683133956E1,-7.630869746E-2,6.054082513E-2,-3.140449524E-2
1.684150191E1,-5.670797825E-2,7.913467288E-2,-1.608791351E-1
1.685169478E1,3.095895052E-3,7.569584250E-2,-1.509943008E-1
1.686185714E1,3.567889333E-2,7.842400670E-2,-4.095077515E-3
1.687201949E1,3.900140524E-3,6.859010458E-2,5.013847351E-2
1.688218184E1,-1.811906695E-2,6.278130412E-2,-2.871131897E-2
1.689234420E1,-2.561742067E-2,7.159695029E-2,-3.992271423E-2
1.690250655E1,-1.618534327E-2,9.036627412E-2,4.591560364E-2
1.691266890E1,-4.588752985E-3,1.062863469E-1,1.208353043E-1
1.692283126E1,-1.712283492E-2,1.187201440E-1,1.140737534E-1
1.693299361E1,-1.771226525E-2,1.258949339E-1,7.666683197E-2
1.694315597E1,-4.272848368E-3,1.119988859E-1,5.413913727E-2
1.695331832E1,1.829522848E-2,8.432450891E-2,9.350776672E-2
1.696351119E1,1.667216420E-2,4.941543937E-2,1.059970856E-1
1.697367354E1,8.054137230E-3,4.007947445E-2,2.843189240E-2
1.698383590E1,-2.119487524E-2,3.745165467E-2,-8.082580566E-2
1.699399825E1,-3.078967333E-2,4.501914978E-2,-7.474422455E-2
1.700416060E1,-1.412409544E-2,3.435423970E-2,-2.150440216E-2
1.701432296E1,-2.627426386E-2,3.337618709E-2,2.138614655E-2
1.702448531E1,-3.602740169E-2,4.629960656E-2,1.383018494E-2
1.703464766E1,-4.321768880E-2,5.661648512E-2,-1.717090607E-2
1.704481002E1,-6.428843737E-2,6.494599581E-2,-3.107452393E-2
1.705497237E1,-6.355142593E-2,7.378405333E-2,-2.577972412E-2
1.706513472E1,-4.145705700E-2,5.910664797E-2,1.012134552E-2
1.707529708E1,-2.189528942E-2,6.347721815E-2,2.413463593E-2
1.708545943E1,-3.351446986E-2,5.822399259E-2,1.191043854E-2
1.709562179E1,-4.717284441E-2,5.294874310E-2,1.408386230E-2
1.710578414E1,-4.180502892E-2,5.952644348E-2,-2.956390381E-4
1.711597701E1,-3.643471003E-2,5.897447467E-2,9.233474731E-3
1.712613936E1,-2.403363585E-2,6.787288189E-2,3.276157379E-2
1.713630172E1,-7.038176060E-3,8.576208353E-2,6.060028076E-2
1.714646407E1,2.834200859E-4,9.112000465E-2,6.669139862E-2
1.715662642E1,-6.624072790E-3,8.673125505E-2,1.828002930E-2
1.716678878E1,-1.356759667E-2,7.548287511E-2,-2.458572388E-2
1.717695113E1,-3.449183702E-2,5.302205682E-2,-5.246353149E-2
1.718711348E1,-4.526698589E-2,3.854396939E-2,-7.048416138E-2
1.719727584E1,-3.418624401E-2,3.888681531E-2,-5.263137817E-2
1.720743819E1,7.364124060E-3,3.701522946E-2,3.111362457E-2
1.721760054E1,3.585359454E-2,3.679436445E-2,1.156530380E-1
1.722779342E1,1.365825534E-2,5.207988620E-2,6.619167328E-2
1.723795577E1,-2.476146817E-2,6.690952182E-2,-2.237987518E-2
1.724811812E1,-2.026027441E-2,7.037344575E-2,1.119327545E-2
1.725828048E1,-5.192887783E-2,7.423219085E-2,3.693962097E-2
1.726844283E1,-1.164433658E-1,8.759352565E-2,-7.274818420E-2
1.727860518E1,-1.519236863E-1,8.340421319E-2,-4.684534073E-1
1.728876754E1,-4.620850086E-3,5.713644624E-2,-2.799959183E-1
1.729892989E1,1.929260194E-1,1.662904024E-2,5.342540741E-1
1.730909225E1,1.564435661E-1,-1.437944174E-2,6.087474823E-1
1.731925460E1,3.660860658E-2,1.526767015E-2,5.250644684E-2
1.732941695E1,-8.184120059E-2,4.927787185E-2,-4.334945679E-1
1.733957930E1,-1.585383415E-1,8.985248208E-2,-5.565414429E-1
1.734974166E1,-6.230828166E-2,7.363694906E-2,-1.532697678E-1
1.735993453E1,3.283330798E-2,6.532073021E-3,2.465400696E-1
1.737009688E1,2.003127337E-2,-2.768191695E-2,2.603368759E-1
1.738025924E1,-2.216231823E-2,5.735725164E-3,1.114406586E-1
1.739042159E1,-5.809378624E-2,7.514062524E-2,3.518104553E-3
1.740058394E1,-9.200462699E-2,1.371879876E-1,-1.560401917E-2
1.741074630E1,-8.745324612E-2,1.723175049E-1,3.707790375E-2
1.742090865E1,-6.596070528E-2,1.530490220E-1,3.948020935E-2
1.743107100E1,-2.771073580E-2,1.293391585E-1,3.235054016E-2
1.744123336E1,-1.345777512E-2,7.458436489E-2,3.000354767E-2
1.745139571E1,-1.376608014E-2,3.631874919E-2,6.137847900E-3
1.746155807E1,-2.122509480E-2,2.625572681E-2,-1.291561127E-2
1.747172042E1,-1.175478101E-2,1.352393627E-2,-4.148769379E-2
1.748188277E1,-1.400336623E-2,1.785293221E-2,-3.171539307E-2
1.749207564E1,-1.751482487E-3,4.173210263E-2,-1.001071930E-2
1.750223800E1,1.277840137E-2,6.107196212E-2,1.643753052E-2
1.751240035E1,7.953733206E-3,7.316860557E-2,4.759788513E-2
1.752256270E1,5.189418793E-3,8.272671700E-2,5.713939667E-2
1.753272506E1,-1.913058758E-2,7.312452793E-2,4.276943207E-2
1.754288741E1,-3.849884868E-2,5.158677697E-2,2.843666077E-2
1.755304976E1,-4.747965932E-2,3.230306506E-2,2.830505371E-2
1.756321212E1,-3.704318404E-2,4.820430279E-2,-7.685661316E-3
1.757337447E1,-2.231127024E-2,6.128451228E-2,-5.200958252E-2
1.758353682E1,-2.009856701E-2,8.598861098E-2,1.474399567E-1
1.759369918E1,-6.471672654E-2,1.116296351E-1,5.489635468E-2
1.760386153E1,-6.809926033E-2,9.235283732E-2,-1.633930206E-1
1.761402388E1,-1.442041993E-2,6.819304824E-2,-1.744499207E-1
1.762418624E1,7.453858852E-3,4.608395696E-2,-3.238677979E-3
1.763434859E1,-1.863148808E-2,4.260876775E-2,7.481765747E-2
1.764454146E1,-3.271850944E-2,3.994485736E-2,-3.036212921E-2
1.765470382E1,-1.354146004E-2,6.794819236E-2,-6.746864319E-2
1.766486617E1,-4.091501236E-3,9.394484758E-2,4.833221436E-3
1.767502852E1,-8.859217167E-3,1.199727654E-1,5.928611755E-2
1.768519088E1,-1.358377934E-2,1.191909909E-1,7.972908020E-2
1.769535323E1,-1.689702272E-3,1.180940270E-1,7.860851288E-2
1.770551558E1,5.187034607E-3,9.339308739E-2,6.799697876E-2
1.771567794E1,9.546101093E-3,7.404559851E-2,5.282688141E-2
1.772584029E1,4.282236099E-3,4.772156477E-2,5.923938751E-2
1.773600265E1,1.293301582E-3,4.483789206E-2,5.366516113E-2
1.774616500E1,-8.713632822E-3,3.924858570E-2,-2.757644653E-2
1.775635787E1,-2.778106928E-2,3.177779913E-2,-1.120777130E-1
1.776652022E1,-2.742317319E-2,1.825034618E-2,-8.395385742E-2
1.777668258E1,-3.183078766E-2,2.181470394E-2,-6.657600403E-3
1.778684493E1,-4.090419412E-2,2.958714962E-2,3.614616394E-2
1.779700728E1,-6.172302365E-2,5.080962181E-2,1.440048218E-2
1.780716964E1,-6.562507153E-2,5.277121067E-2,-1.166915894E-2
1.781733199E1,-6.713554263E-2,6.263047457E-2,-3.490447998E-2
1.782749434E1,-6.606325507E-2,6.133401394E-2,-3.406047821E-2
1.783765670E1,-5.554565787E-2,6.516921520E-2,-7.188796997E-3
1.784781905E1,-3.577783704E-2,6.399917603E-2,1.445579529E-2
1.785798140E1,-3.289684653E-2,5.534595251E-2,2.158355713E-2
1.786814376E1,-2.529659867E-2,5.131924152E-2,2.848243713E-2
1.787830611E1,-3.431969881E-2,5.190658569E-2,2.111625671E-2
1.788846847E1,-3.383907676E-2,5.726939440E-2,1.391792297E-2
1.789863082E1,-2.381473780E-2,6.487464905E-2,2.574539185E-2
1.790882369E1,-1.845496893E-2,6.742382050E-2,3.969669342E-2
1.791898604E1,-8.444517851E-3,7.434886694E-2,3.688526154E-2
1.792914840E1,1.572340727E-3,5.959331989E-2,1.514244080E-2
1.793931075E1,1.385164261E-2,5.457472801E-2,-1.569843292E-2
1.794947310E1,-2.263963223E-3,4.985940456E-2,-4.836654663E-2
1.795963546E1,-1.560178399E-2,4.065757990E-2,-6.388282776E-2
1.796979781E1,-3.557273746E-2,4.379206896E-2,-6.731128693E-2
1.797996016E1,-4.551944137E-2,3.547656536E-2,-5.873012543E-2
1.799012252E1,-2.012845874E-2,2.984982729E-2,5.376529694E-2
1.800028487E1,6.609976292E-3,3.783369064E-2,1.333341599E-1
1.801047774E1,-1.217445731E-2,4.926258326E-2,4.376602173E-2
1.802064010E1,-1.883354783E-2,7.227408886E-2,5.526542664E-3
1.803080245E1,-2.599233389E-2,8.614253998E-2,7.179260254E-2
1.804096480E1,-7.866522670E-2,8.793431520E-2,2.807998657E-2
1.805112716E1,-1.324470937E-1,7.610440254E-2,-1.379528046E-1
1.806128951E1,-1.310386658E-1,7.601606846E-2,-4.447078705E-1
1.807145186E1,3.766652942E-2,4.400902987E-2,-2.562065125E-1
1.808161422E1,1.648759842E-1,-3.009808064E-2,6.117248535E-1
1.809177657E1,7.643780112E-2,-4.570376873E-2,2.882461548E-1
1.810193892E1,5.565792322E-3,-2.179133892E-2,-1.535873413E-1
1.811210128E1,-6.990981102E-2,1.621133089E-2,-3.258008957E-1
1.812226363E1,-8.851692080E-2,4.762130976E-2,-1.519365311E-1
1.813245650E1,-1.246920228E-2,4.737704992E-2,9.428596497E-2
1.814261886E1,1.488944888E-2,5.291914940E-2,1.399497986E-1
1.815278121E1,-1.362234354E-2,7.947373390E-2,5.729675293E-2
1.816294356E1,-6.526926160E-2,1.042628884E-1,-2.579689026E-3
1.817310592E1,-9.778022766E-2,1.506954432E-1,-9.304046631E-3
1.818326827E1,-1.040683985E-1,1.708429456E-1,-1.342773438E-2
1.819343062E1,-7.046779990E-2,1.542921066E-1,1.101207733E-2
1.820359298E1,-3.092408180E-2,1.196304560E-1,5.392360687E-2
1.821375533E1,3.643631935E-4,8.073264360E-2,6.537246704E-2
1.822391768E1,2.127957344E-2,1.331770420E-2,5.052947998E-2
1.823408004E1,8.408904076E-3,-1.961231232E-3,1.227474213E-2
1.824424239E1,4.947185516E-6,-2.053987980E-2,-1.117134094E-2
1.825440475E1,-8.501559496E-3,-2.826875448E-2,1.761627197E-2
1.826456710E1,-1.161402464E-2,-8.612751961E-3,2.216720581E-2
1.827472945E1,-1.415973902E-2,1.268672943E-2,7.745742798E-3
1.828489180E1,1.416847110E-2,3.624880314E-2,3.142738342E-2
1.829505416E1,2.070057392E-2,4.060012102E-2,5.472373962E-2
1.830521651E1,3.481984138E-3,4.237300158E-2,5.395984650E-2
1.831540938E1,-1.351809502E-2,3.930646181E-2,2.246665955E-2
1.832557174E1,-4.200616479E-2,3.622657061E-2,3.311157227E-3
1.833573409E1,-4.400032759E-2,1.651751995E-2,1.280498505E-2
1.834589644E1,-3.445529938E-2,2.050036192E-2,-8.418083191E-2
1.835605880E1,-3.070634604E-2,5.291503668E-2,1.302795410E-1
1.836622115E1,-6.017073989E-2,7.469898462E-2,7.103538513E-2
1.837638350E1,-6.212818623E-2,8.422887325E-2,-1.167755127E-1
1.838654586E1,-1.885265112E-3,6.443482637E-2,-1.026105881E-1
1.839670821E1,3.354957700E-2,5.523616076E-2,-2.508163452E-2
1.840687057E1,1.373267174E-2,5.509996414E-2,-6.236743927E-2
1.841703292E1,-1.309666038E-2,4.988294840E-2,-4.920959473E-2
1.842719527E1,-2.057418227E-2,4.220652580E-2,2.264881134E-2
1.843735762E1,-4.173696041E-3,5.790728331E-2,1.768112183E-2
1.844751998E1,-6.916314363E-3,7.772499323E-2,4.360389709E-2
1.845771285E1,-4.597306252E-3,8.720129728E-2,8.556079865E-2
1.846787520E1,7.181555033E-3,9.349375963E-2,9.593009949E-2
1.847803756E1,2.205878496E-3,7.577711344E-2,5.887699127E-2
1.848819991E1,-5.143254995E-3,5.138528347E-2,1.771831512E-2
1.849836226E1,-5.829930305E-4,3.728979826E-2,2.233695984E-2
1.850852462E1,-5.758464336E-3,2.791869640E-2,2.907276154E-2
1.851868697E1,-2.266767621E-2,2.991765738E-2,-4.607200623E-3
1.852884932E1,-4.624906182E-2,1.974767447E-2,-6.599712372E-2
1.853901168E1,-4.555475712E-2,1.737946272E-2,-6.954383850E-2
1.854917403E1,-5.428656936E-2,-5.963087082E-3,-9.197235107E-3
1.855933638E1,-3.919419646E-2,-8.120179176E-3,3.111839294E-2
1.856949874E1,-4.565206170E-2,1.736176014E-2,2.342319489E-2
1.857969161E1,-5.212169886E-2,2.082276344E-2,1.647949219E-3
1.858985396E1,-5.872541666E-2,3.134220839E-2,-7.900238037E-3
1.860001632E1,-5.579575896E-2,4.651498795E-2,-2.205276489E-2
1.861017867E1,-4.821175337E-2,3.982740641E-2,-3.592109680E-2
1.862034102E1,-4.072198272E-2,4.011422396E-2,-3.777980804E-2
1.863050338E1,-3.083032370E-2,4.954755306E-2,-4.237174988E-3
1.864066573E1,-2.808815241E-2,4.893475771E-2,2.875804901E-2
1.865082808E1,-1.597547531E-2,5.244022608E-2,6.827735901E-2
1.866099044E1,-8.678644896E-3,4.822725058E-2,5.735874176E-2
1.867115279E1,3.264695406E-3,6.974780560E-2,1.355743408E-2
1.868131515E1,-1.445740461E-3,6.982761621E-2,-4.601955414E-2
1.869150802E1,-8.701115847E-3,4.912716150E-2,-7.376384735E-2
1.870167037E1,-2.275380492E-2,3.382980824E-2,-7.508087158E-2
1.871183272E1,-2.693313360E-2,2.112519741E-2,-3.138351440E-2
1.872199508E1,-2.849668264E-3,1.990932226E-2,4.936313629E-2
1.873215743E1,2.283000946E-2,1.762092113E-2,6.465053558E-2
1.874231978E1,7.758527994E-3,4.066020250E-2,-6.237030029E-4
1.875248214E1,-1.200619340E-2,5.409705639E-2,1.570796967E-2
1.876264449E1,-2.258154750E-2,6.518876553E-2,8.126831055E-2
1.877280684E1,-7.379883528E-2,6.642162800E-2,3.686714172E-2
1.878296920E1,-1.122802794E-1,7.774972916E-2,-2.008733749E-1
1.879313155E1,-7.418969274E-2,7.018375397E-2,-5.258560181E-1
1.880329390E1,7.917833328E-2,2.400302887E-2,-8.530616760E-2
1.881345626E1,1.716453433E-1,-1.835674047E-2,7.401113510E-1
1.882364913E1,6.040546298E-2,-2.024024725E-2,1.450929642E-1
1.883381148E1,-1.931488514E-3,2.367019653E-2,-1.768074036E-1
1.884397384E1,-8.968108892E-2,5.877470970E-2,-3.869457245E-1
1.885413619E1,-9.683656693E-2,5.262309313E-2,-1.793727875E-1
1.886429854E1,-3.049415350E-2,1.329356432E-2,6.929969788E-2
1.887446090E1,2.683195472E-2,-1.517790556E-2,1.102409363E-1
1.888462325E1,1.331293583E-2,-1.229703426E-3,5.353260040E-2
1.889478560E1,-5.200627446E-2,6.246596575E-2,-2.148628235E-3
1.890494796E1,-9.304064512E-2,1.370726228E-1,2.396583557E-3
1.891511031E1,-9.343397617E-2,1.771408319E-1,2.346324921E-2
1.892527266E1,-7.768753171E-2,1.823345423E-1,3.248596191E-2
1.893543502E1,-4.627659917E-2,1.479793787E-1,4.844188690E-2
1.894559737E1,-2.791211009E-2,9.878194332E-2,6.934833527E-2
1.895575972E1,-7.704705000E-3,6.015241146E-2,5.478191376E-2
1.896592208E1,-6.754785776E-3,1.823955774E-2,2.773666382E-2
1.897611495E1,-3.317117691E-3,-2.615332603E-3,-1.072788239E-2
1.898627730E1,-6.705671549E-3,-9.680688381E-3,-3.434658051E-2
1.899643966E1,-9.588181973E-3,6.808757782E-3,-2.911758423E-2
1.900660201E1,-9.743899107E-3,1.604473591E-2,9.072303772E-3
1.901676436E1,1.162934303E-2,3.936469555E-2,3.952980042E-2
1.902692672E1,4.210770130E-3,4.100590944E-2,5.762386322E-2
1.903708907E1,-3.219306469E-3,5.443269014E-2,3.283977509E-2
1.904725142E1,-1.775109768E-2,5.125403404E-2,1.400947571E-3
1.905741378E1,-4.600697756E-2,5.309993029E-2,-3.434181213E-3
1.906760665E1,-4.986223578E-2,3.610694408E-2,5.798244476E-2
1.907776900E1,-4.238924384E-2,1.653778553E-2,-4.019641876E-2
1.908793136E1,-2.696728706E-2,1.831442118E-2,8.348083496E-2
1.909809371E1,-4.459372163E-2,5.477851629E-2,1.005039215E-1
1.910825606E1,-6.856822968E-2,6.890976429E-2,-6.934165955E-2
1.911841842E1,-2.768066525E-2,8.395129442E-2,-1.721725464E-1
1.912858077E1,2.010527253E-2,7.183206081E-2,-1.125907898E-1
1.913874312E1,2.665707469E-2,6.069999933E-2,-4.222011566E-2
1.914890548E1,4.716664553E-3,3.992098570E-2,2.216243744E-2
1.915906783E1,-2.883496881E-2,3.766959906E-2,-2.097225189E-2
1.916923018E1,-2.398633957E-2,5.224668980E-2,-3.010368347E-2
1.917939254E1,-3.025233746E-4,7.879209518E-2,2.952098846E-2
1.918955489E1,1.098328829E-2,1.069791913E-1,1.211061478E-1
1.919974776E1,-1.837283373E-3,1.104989350E-1,1.070175171E-1
1.920991012E1,2.058178186E-3,1.088061929E-1,4.362678528E-2
1.922007247E1,-8.336722851E-3,9.552282095E-2,4.973411560E-3
1.923023482E1,7.461011410E-3,7.595837116E-2,4.973697662E-2
1.924039718E1,8.720576763E-3,3.991925716E-2,8.425426483E-2
1.925055953E1,-1.378679276E-2,2.723798156E-2,1.401710510E-2
1.926072188E1,-3.101494908E-2,1.417085528E-2,-6.435966492E-2
1.927088424E1,-3.826329112E-2,2.299323678E-2,-7.515430450E-2
1.928104659E1,-2.885630727E-2,2.306279540E-2,-4.798412323E-2
1.929120894E1,-1.978442073E-2,4.485020041E-2,-7.056236267E-3
1.930137130E1,-3.229951859E-2,4.253810644E-2,7.106781006E-3
1.931153365E1,-3.748726845E-2,5.433478951E-2,-9.721755981E-3
1.932172652E1,-5.908557773E-2,6.400400400E-2,-2.149391174E-2
1.933188888E1,-6.343507767E-2,6.943741441E-2,-2.588081360E-2
1.934205123E1,-5.570492148E-2,6.350773573E-2,5.474090576E-4
1.935221358E1,-3.618609905E-2,4.110941291E-2,5.025863647E-4
1.936237594E1,-3.598853946E-2,3.291630745E-2,4.854202271E-4
1.937253829E1,-2.868479490E-2,4.133871198E-2,5.234718323E-3
1.938270064E1,-4.036599398E-2,5.434095860E-2,4.196166992E-4
1.939286300E1,-3.535988927E-2,5.522662401E-2,2.637004852E-2
1.940302535E1,-1.142856479E-2,5.839785933E-2,6.604290009E-2
1.941318770E1,-1.381647587E-2,7.069021463E-2,5.776596069E-2
1.942335006E1,-4.299283028E-3,7.309129834E-2,1.645183563E-2
1.943351241E1,-1.130497456E-2,7.089996338E-2,-4.059123993E-2
1.944367476E1,-2.503412962E-2,5.751004815E-2,-7.772064209E-2
1.945383712E1,-3.561654687E-2,4.275202751E-2,-8.814907074E-2
1.946402999E1,-1.271149516E-2,3.097099066E-2,-2.275466919E-2
1.947419234E1,2.842310071E-2,2.145111561E-2,7.697010040E-2
1.948435470E1,2.551060915E-2,3.462848067E-2,1.109237671E-1
1.949451705E1,-1.310247183E-2,5.149543285E-2,4.887580872E-3
1.950467940E1,-2.268639207E-2,6.841853261E-2,-2.343273163E-2
1.951484176E1,-3.241300583E-2,8.592891693E-2,3.834342957E-2
1.952500411E1,-7.808876038E-2,9.875011444E-2,1.861286163E-2
1.953516646E1,-1.342175901E-1,9.540897608E-2,-2.659149170E-1
1.954532882E1,-9.937492013E-2,7.358881831E-2,-4.544620514E-1
1.955549117E1,9.771984816E-2,2.515158057E-2,5.564880371E-2
1.956565352E1,2.070409060E-1,-1.216512918E-2,7.894487381E-1
1.957581588E1,9.293907881E-2,-1.597890258E-2,3.147010803E-1
1.958597823E1,6.691098213E-3,3.593602777E-2,-1.188077927E-1
1.959614058E1,-1.188530922E-1,7.644361258E-2,-5.795669556E-1
1.960633346E1,-1.251828671E-1,9.051516652E-2,-4.249372482E-1
1.961649581E1,2.900272608E-3,3.595426679E-2,3.772830963E-2
1.962665816E1,3.800317645E-2,-2.177521586E-2,2.624654770E-1
1.963682052E1,9.610354900E-4,-3.218391538E-2,1.948776245E-1
1.964698287E1,-3.454625607E-2,2.202889323E-2,6.760215759E-2
1.965714522E1,-7.308083773E-2,9.653237462E-2,-1.965522766E-3
1.966730758E1,-8.770504594E-2,1.562433839E-1,7.594108582E-3
1.967746993E1,-7.339709997E-2,1.812005639E-1,3.630256653E-2
1.968763228E1,-5.418360233E-2,1.658641100E-1,4.107379913E-2
1.969779464E1,-3.275427222E-2,1.172545254E-1,4.345512390E-2
1.970795699E1,-2.594095469E-2,7.569330931E-2,2.666664124E-2
1.971811934E1,-2.646186948E-2,2.413299680E-2,5.129814148E-3
1.972828170E1,-2.931696177E-2,-6.461620331E-3,-2.354526520E-2
1.973847457E1,-2.711588144E-2,-1.089763641E-2,-4.736232758E-2
1.974863692E1,-1.271525025E-2,3.852754831E-3,-2.571964264E-2
1.975879928E1,1.679420471E-3,1.866301894E-2,-1.738548279E-3
1.976896163E1,2.070495486E-2,5.016407371E-2,4.607009888E-2
1.977912398E1,2.519020438E-2,7.657015324E-2,5.311775208E-2
1.978928634E1,5.555927753E-3,8.846208453E-2,2.190685272E-2
1.979944869E1,-2.374139428E-2,6.706663966E-2,1.230430603E-2
1.980961104E1,-4.575532675E-2,5.558171868E-2,2.183818817E-2
1.981977340E1,-4.528591037E-2,3.148376942E-2,4.274654388E-2
1.982996627E1,-2.854433656E-2,2.148824930E-2,-5.984020233E-2
1.984012862E1,-1.980373263E-2,3.763324022E-2,1.492595673E-2
1.985029098E1,-3.449928761E-2,8.123120666E-2,1.396064758E-1
1.986045333E1,-6.767672300E-2,8.553451300E-2,-2.533912659E-3
1.987061568E1,-5.259457231E-2,8.789339662E-2,-1.962394714E-1
1.988077804E1,-4.333794117E-3,6.162545085E-2,-1.666650772E-1
1.989094039E1,9.884208441E-3,4.900586605E-2,2.773952484E-2
1.990110274E1,-2.587577701E-2,4.270809889E-2,3.890609741E-2
1.991126510E1,-2.125144005E-2,6.140181422E-2,-5.623054504E-2
1.992142745E1,-4.847913980E-3,6.332704425E-2,-3.384208679E-2
1.993158980E1,-5.148440599E-3,9.648591280E-2,4.241752625E-2
1.994175216E1,-1.251631975E-2,1.219351888E-1,7.723522186E-2
1.995191451E1,-1.741644740E-2,1.158867776E-1,7.123565674E-2
1.996207686E1,-1.275697351E-2,1.004637778E-1,5.823230743E-2
1.997223922E1,1.050859690E-3,8.579400182E-2,3.373527527E-2
1.998240157E1,2.921819687E-4,6.441193819E-2,6.398010254E-2
1.999256392E1,-3.081917763E-3,3.781193495E-2,8.177852631E-2
2.000275680E1,-1.349014044E-2,3.442987800E-2,3.538322449E-2
2.001291915E1,-4.245746136E-2,3.813371062E-2,-7.401561737E-2
2.002308150E1,-5.633586645E-2,3.800091147E-2,-1.270151138E-1
2.003324386E1,-5.091628432E-2,4.371166229E-2,-6.096744537E-2
2.004340621E1,-4.576912522E-2,4.253956676E-2,3.903388977E-3
2.005356856E1,-4.081475735E-2,4.091042280E-2,2.032089233E-2
2.006373092E1,-4.545474052E-2,4.840922356E-2,1.061439514E-3
2.007389327E1,-4.996877909E-2,5.855402350E-2,-2.488422394E-2
2.008405562E1,-5.432629585E-2,6.459760666E-2,-2.911376953E-2
2.009421798E1,-4.422777891E-2,7.088044286E-2,-4.820823669E-3
2.010441085E1,-3.408619761E-2,5.819517374E-2,9.580612183E-3
2.011457320E1,-1.701980829E-2,6.200125813E-2,2.371025085E-2
2.012473556E1,-2.619597316E-2,6.318518519E-2,1.155662537E-2
2.013489791E1,-2.818375826E-2,6.431540847E-2,-3.347396851E-4
2.014506026E1,-2.293756604E-2,6.090730429E-2,-1.955032349E-4
2.015522262E1,-1.294589043E-2,7.421165705E-2,9.355545044E-3
2.016538497E1,-1.957470179E-2,5.893254280E-2,1.877117157E-2
2.017554732E1,-1.904317737E-2,7.221275568E-2,9.140014648E-3
2.018570968E1,-1.834437251E-2,7.099637389E-2,2.329158783E-2
2.019587203E1,1.485586166E-3,6.266492605E-2,5.138969421E-2
2.020603438E1,-2.715587616E-3,6.380423903E-2,1.989078522E-2
2.021619674E1,2.438545227E-3,5.297681689E-2,-2.760887146E-2
2.022638961E1,-1.116749644E-2,5.930057168E-2,-5.065155029E-2
2.023652144E1,-1.491492987E-2,4.225933552E-2,-5.673599243E-2
2.024671432E1,-3.954166174E-2,4.244896770E-2,-6.509590149E-2
2.025687667E1,-3.491953015E-2,4.769805074E-2,-4.006385803E-2
2.026703902E1,8.884072304E-5,3.889897466E-2,4.833030701E-2
