"Time (s)","Linear Acceleration x (m/s^2)","Linear Acceleration y (m/s^2)","Linear Acceleration z (m/s^2)"
4.158218400E-2,-9.832024574E-3,-1.252338290E-2,3.650598526E-1
5.165298500E-2,4.486131668E-2,-3.229430318E-2,4.492740631E-1
6.178482100E-2,1.002908647E-1,-1.101562381E-2,4.036130905E-1
7.191665700E-2,8.495977521E-2,3.428742290E-2,2.068338394E-1
8.204849300E-2,3.140884638E-2,9.707584977E-2,-2.164745331E-2
9.218032900E-2,-3.061553836E-2,1.598744988E-1,-1.085586548E-1
1.023426820E-1,-5.723333359E-2,1.721928418E-1,-4.161167145E-2
1.125050360E-1,-3.117135167E-2,1.645187438E-1,7.897853851E-2
1.226673890E-1,2.198359370E-2,1.056419611E-1,1.498222351E-1
1.328297430E-1,7.039827108E-2,3.715181351E-2,1.350622177E-1
1.429615790E-1,7.745975256E-2,-3.503584862E-2,9.646129608E-2
1.531239320E-1,7.192054391E-2,-8.708497882E-2,7.767391205E-2
1.632862860E-1,3.397122025E-2,-1.146843135E-1,9.704113007E-2
1.734486390E-1,1.796516776E-2,-1.085157990E-1,8.342552185E-2
1.836109930E-1,1.303398609E-2,-9.272214770E-2,6.686210632E-2
1.937733460E-1,1.518681645E-2,-5.331176519E-2,6.062984467E-2
2.039662170E-1,2.354133129E-2,-2.519476414E-2,9.835910797E-2
2.141285710E-1,3.080934286E-2,-7.833719254E-3,1.068077087E-1
2.242909240E-1,1.696866751E-2,4.068493843E-3,1.035737991E-1
2.344532780E-1,8.353382349E-3,-3.387123346E-3,1.009283066E-1
2.446156310E-1,9.606301785E-3,-2.476298809E-2,7.754325867E-2
2.547779850E-1,4.363691807E-2,-8.679240942E-3,-1.561641693E-2
2.649403380E-1,4.983258247E-2,-2.950727940E-4,1.010837555E-1
2.751026920E-1,1.545271277E-2,1.425218582E-2,1.102752686E-1
2.852650450E-1,2.482950687E-3,7.678687572E-3,-4.053783417E-2
2.954273990E-1,1.134964824E-2,1.883766055E-2,-7.586669922E-2
3.055897520E-1,4.724723101E-2,2.539363503E-2,5.836486816E-3
3.157521060E-1,5.437806249E-2,4.092738032E-2,2.644157410E-2
3.259144590E-1,2.491769195E-2,3.401950002E-2,2.321910858E-2
3.360768130E-1,-1.751986146E-2,4.078897834E-2,1.074886322E-2
3.462391660E-1,-2.608028054E-2,3.579184413E-2,5.717277527E-3
3.564015200E-1,-3.002986312E-2,4.507812858E-2,1.726913452E-2
3.665638730E-1,2.962201834E-3,7.066774368E-2,6.355381012E-2
3.767262270E-1,2.272942662E-2,7.219234109E-2,1.083974838E-1
3.868885800E-1,3.225961328E-2,5.461165309E-2,1.052246094E-1
3.970509340E-1,3.003400564E-2,3.972369432E-2,8.583831787E-2
4.072132880E-1,1.858338714E-2,2.044460177E-2,6.010532379E-2
4.173756410E-1,1.475778222E-2,8.544445038E-3,7.501697540E-2
4.275379950E-1,8.896112442E-3,3.522694111E-3,8.011817932E-2
4.377003480E-1,-3.339797258E-3,-8.714705706E-3,4.990100861E-2
4.478627020E-1,-1.723536849E-2,-1.379236579E-2,1.341629028E-2
4.580555730E-1,-1.202866435E-2,-2.303019166E-2,3.771781921E-3
4.682179260E-1,-7.187724113E-3,-3.897824883E-2,3.898906708E-2
4.783802800E-1,-2.769529819E-4,-3.125604987E-2,7.584476471E-2
4.885426330E-1,-4.464983940E-4,-2.429226041E-2,8.825969696E-2
4.987049870E-1,-7.568895817E-3,-1.545578241E-2,5.567073822E-2
5.088673400E-1,-2.942681313E-3,-9.354859591E-3,3.094673157E-2
5.190296940E-1,3.758996725E-3,-1.011067629E-2,1.618480682E-2
5.291920470E-1,1.255738735E-2,-8.248448372E-3,-2.902603149E-2
5.393544010E-1,7.231086493E-3,-1.790404320E-2,-6.616401672E-2
5.495167540E-1,-4.827171564E-3,-2.704891562E-2,-9.079170227E-2
5.596791080E-1,-9.008646011E-3,-1.895231009E-2,-2.998352051E-2
5.698414610E-1,-1.137137413E-3,-2.284142375E-2,6.739139557E-2
5.800038150E-1,9.026408195E-3,-6.240755320E-3,1.346101761E-1
5.901661680E-1,1.926925778E-2,1.601943374E-2,8.963489532E-2
6.003285220E-1,-7.609128952E-4,4.201328754E-2,-8.662223816E-3
6.104908750E-1,-1.135665178E-2,6.328594685E-2,3.491401672E-3
6.206532290E-1,-2.290147543E-2,8.688840270E-2,7.676410675E-2
6.308155820E-1,-3.683823347E-2,8.172065020E-2,8.253002167E-2
6.409779360E-1,-5.914476514E-2,7.670339942E-2,-1.153163910E-1
6.511402890E-1,-2.015125751E-2,6.440138817E-2,-3.045015335E-1
6.613026430E-1,8.430999517E-2,2.406519651E-2,1.413631439E-1
6.714649960E-1,1.354219317E-1,-1.068037748E-2,5.965394974E-1
6.816273500E-1,1.823829114E-1,-1.215434074E-2,2.460269928E-1
6.917897040E-1,5.684620142E-2,-4.138559103E-3,-8.857536316E-2
7.019520570E-1,-6.712535024E-2,3.207802773E-3,-3.089828491E-1
7.121144110E-1,-1.114446223E-1,-1.921892166E-3,-1.854314804E-1
7.223072820E-1,-7.035279274E-2,-3.761920333E-2,6.798839569E-2
7.324391180E-1,2.016109228E-2,-7.904624939E-2,2.511148453E-1
7.426014710E-1,7.073971629E-2,-6.288036704E-2,2.683324814E-1
7.527638250E-1,5.720394850E-2,-1.758375764E-2,1.082544327E-1
7.629261780E-1,-7.873892784E-3,6.941163540E-2,-1.104278564E-1
7.731190490E-1,-6.979230046E-2,1.371407807E-1,-1.789989471E-1
7.832814030E-1,-7.244965434E-2,1.750698686E-1,-7.183837891E-2
7.934437560E-1,-3.212496638E-2,1.773990393E-1,8.516311646E-2
8.036061100E-1,9.162276983E-3,1.281303763E-1,1.448669434E-1
8.137684630E-1,4.066053033E-2,4.540878534E-2,1.209135056E-1
8.239308170E-1,5.332404375E-2,-2.084574103E-2,7.868576050E-2
8.340931700E-1,1.443833113E-2,-7.808122039E-2,6.320953369E-2
8.442555240E-1,-1.444578171E-3,-8.848917484E-2,6.705665588E-2
8.544178770E-1,-1.758545637E-3,-6.694176793E-2,5.669689178E-2
8.645802310E-1,9.785890579E-4,-2.739435434E-2,5.367469788E-2
8.747425840E-1,-1.315385103E-3,1.952439547E-3,7.198429108E-2
8.849049380E-1,2.179080248E-2,2.161702514E-2,8.519935608E-2
8.950672910E-1,1.781454682E-2,2.705937624E-2,8.161735535E-2
9.052296450E-1,-3.280460835E-3,2.797374129E-2,8.750629425E-2
9.153919980E-1,-1.244315505E-2,1.002192497E-2,9.328079224E-2
9.255543520E-1,-7.097363472E-3,-1.013424993E-2,6.099987030E-2
9.357167050E-1,3.172704577E-2,2.986192703E-3,-4.368114471E-2
9.458790590E-1,2.902513742E-2,2.812007070E-2,5.656528473E-2
9.560414130E-1,-5.307376385E-3,5.547764897E-2,7.206535339E-2
9.662037660E-1,-3.060954809E-2,5.234727263E-2,-4.023456573E-2
9.763661200E-1,-2.792477608E-3,5.997198820E-2,-7.003879547E-2
9.865284730E-1,2.916109562E-2,7.084918022E-2,-2.389812469E-2
9.966908270E-1,4.661229253E-2,9.348130226E-2,1.914882660E-2
1.006853180E0,3.076088428E-2,6.789425015E-2,4.252052307E-2
1.017046051E0,-2.481564879E-2,4.696339369E-2,2.060413361E-2
1.027208405E0,-4.629731178E-2,2.156937122E-2,-3.216743469E-3
1.037370758E0,-2.994453907E-2,2.988168597E-2,4.900646210E-2
1.047533112E0,-7.628291845E-3,4.538100958E-2,1.120271683E-1
1.057695465E0,1.652392745E-2,6.978097558E-2,1.078433990E-1
1.067857819E0,4.472708702E-2,7.715579867E-2,7.772731781E-2
1.078020172E0,3.200620413E-2,7.492464781E-2,6.939792633E-2
1.088182526E0,9.830802679E-3,5.627155304E-2,8.484363556E-2
1.098344879E0,1.408120990E-2,2.573105693E-2,1.094923019E-1
1.108507233E0,1.371574402E-2,1.162543893E-2,1.124048233E-1
1.118669586E0,4.621386528E-3,-1.023450494E-2,7.287025452E-2
1.128831940E0,-1.068261266E-2,-1.324763894E-2,2.218723297E-2
1.138994293E0,-1.377150416E-2,-1.136210561E-2,5.529403687E-3
1.149156647E0,-3.110468388E-3,3.142356873E-4,3.401756287E-2
1.159319000E0,-4.821330309E-3,2.379059792E-2,6.902408600E-2
1.169481354E0,-6.513148546E-3,2.783599496E-2,5.147171021E-2
1.179643707E0,-1.998084784E-2,3.179422021E-2,8.234024048E-3
1.189806061E0,-9.737819433E-3,4.771694541E-2,-8.296966553E-3
1.199968414E0,-4.712730646E-3,3.572970629E-2,6.184577942E-3
1.210130768E0,2.456158400E-3,2.654030919E-2,3.685474396E-2
1.220293121E0,1.666527987E-2,2.455988526E-2,4.097652435E-2
1.230455475E0,1.000592113E-2,1.529249549E-2,-9.226799011E-3
1.240617829E0,-5.493938923E-3,1.340395212E-2,-7.744884491E-2
1.250780182E0,-1.354593039E-2,1.665791869E-2,-6.414604187E-2
1.260942536E0,4.160135984E-3,2.987739444E-2,2.687549591E-2
1.271135407E0,1.412114501E-2,2.847933769E-2,1.186733246E-1
1.281297760E0,1.694023609E-2,4.510733485E-2,1.284837723E-1
1.291460114E0,3.890633583E-3,7.503855228E-2,2.717494965E-2
1.301622467E0,-1.557081938E-3,7.860979438E-2,-1.783752441E-2
1.311784821E0,-1.719325781E-2,8.286136389E-2,3.839492798E-3
1.321947174E0,-4.532212019E-2,7.115161419E-2,2.506828308E-2
1.332109528E0,-7.037565112E-2,7.485038042E-2,-1.741628647E-1
1.342271881E0,-3.397452831E-2,5.237367749E-2,-2.679176331E-1
1.352434235E0,7.449936867E-2,2.078667283E-2,1.508474350E-1
1.362596588E0,1.065053940E-1,-5.108088255E-3,6.627626419E-1
1.372758942E0,1.602102816E-1,-5.025863647E-4,3.724327087E-1
1.382921295E0,8.329075575E-2,1.962810755E-2,-2.589893341E-2
1.393083649E0,-7.431492209E-2,5.272424221E-2,-4.081001282E-1
1.403246002E0,-1.364829838E-1,4.372823238E-2,-3.655328751E-1
1.413408356E0,-9.297162294E-2,4.203766584E-3,-3.353977203E-2
1.423570709E0,1.704192162E-2,-4.715123773E-2,2.691192627E-1
1.433733063E0,9.360283613E-2,-7.231989503E-2,3.613243103E-1
1.443895416E0,8.515703678E-2,-4.416269064E-2,1.554031372E-1
1.454057770E0,-9.240210056E-4,1.271718740E-2,-1.046028137E-1
1.464220123E0,-8.388808370E-2,8.628013730E-2,-1.915206909E-1
1.474382477E0,-1.047055125E-1,1.663185954E-1,-1.067581177E-1
1.484544830E0,-7.963079214E-2,1.991014779E-1,4.855060577E-2
1.494707184E0,-1.704663038E-2,1.824398339E-1,1.407375336E-1
1.504869538E0,2.913132310E-2,1.314624250E-1,1.228656769E-1
1.515062409E0,2.615833282E-2,7.940846682E-2,5.285739899E-2
1.525194245E0,-2.090901136E-3,5.249768496E-3,-1.178073883E-2
1.535387116E0,-5.718588829E-3,-2.814403176E-2,-1.880073547E-2
1.545549469E0,-1.137018204E-2,-3.501924872E-2,-4.300117493E-3
1.555711823E0,1.634487510E-2,-3.455585241E-2,4.103755951E-2
1.565874176E0,2.210977674E-2,4.100650549E-3,7.652282715E-2
1.576036530E0,2.750447392E-2,2.104237676E-2,8.080482483E-2
1.586198883E0,3.836005926E-3,3.302669525E-2,8.744239807E-2
1.596361237E0,-1.539325714E-2,2.817592025E-2,1.035346985E-1
1.606523590E0,-1.589938998E-2,1.115784049E-2,1.195249557E-1
1.616685944E0,2.710968256E-3,1.259818673E-2,1.008996964E-1
1.626848297E0,2.645453811E-2,-5.484610796E-3,-4.263877869E-2
1.637010651E0,3.556206822E-2,1.941755414E-2,4.118251801E-2
1.647173004E0,7.176697254E-4,3.902649879E-2,1.538162231E-1
1.657335358E0,-1.833072305E-2,5.803877115E-2,3.999519348E-2
1.667497711E0,-7.924437523E-5,5.587938428E-2,-1.401214600E-1
1.677660065E0,2.002692223E-2,6.704407930E-2,-9.496212006E-2
1.687822418E0,2.448424697E-2,6.475365162E-2,2.944183350E-2
1.697984772E0,2.221831679E-2,6.454393268E-2,2.641868591E-2
1.708147125E0,-2.757459879E-3,5.656325817E-2,-3.775787354E-2
1.718309479E0,-2.302622795E-2,5.326777697E-2,-2.751922607E-2
1.728471832E0,-2.002787590E-2,6.918537617E-2,3.606796265E-3
1.738634186E0,-1.011845469E-2,7.584464550E-2,5.850791931E-3
1.748796539E0,-2.955138683E-3,8.984827995E-2,1.994991302E-2
1.758958893E0,8.099198341E-3,8.734878898E-2,5.503559113E-2
1.769121246E0,1.860064268E-2,8.501636982E-2,8.943367004E-2
1.779283600E0,1.719453931E-2,5.869638920E-2,9.017562866E-2
1.789445954E0,1.615425944E-2,3.920036554E-2,1.004209518E-1
1.799638825E0,1.290890574E-2,3.577667475E-2,9.872722626E-2
1.809801178E0,7.717549801E-3,2.219206095E-2,5.925655365E-2
1.819963532E0,-8.785516024E-3,1.803839207E-2,-7.333755493E-4
1.830125885E0,-2.474835515E-2,1.933720708E-2,-3.836345673E-2
1.840288239E0,-1.696074009E-2,2.384528518E-2,-1.401519775E-2
1.850450592E0,-7.452964783E-3,1.222875714E-2,3.579711914E-2
1.860612946E0,-7.699966431E-3,1.242488623E-2,5.162239075E-2
1.870775299E0,-1.491373777E-2,5.333572626E-3,3.420925140E-2
1.880937653E0,-1.499503851E-2,1.730629802E-2,-4.201889038E-3
1.891100006E0,-5.783945322E-3,2.512755990E-2,-2.076339722E-2
1.901262360E0,5.378097296E-3,3.578695655E-2,-3.918647766E-3
1.911424713E0,1.174211502E-2,3.463605046E-2,3.388214111E-2
1.921587067E0,2.072355151E-2,4.031112790E-2,5.916404724E-2
1.931749420E0,2.515882254E-2,3.829872608E-2,4.625511169E-2
1.941911774E0,1.343846321E-2,3.629294038E-2,-1.846313477E-3
1.952074127E0,-1.222369075E-2,3.471481800E-2,-6.331729889E-2
1.962236481E0,-3.503018618E-2,4.576003551E-2,-7.169246674E-2
1.972398834E0,-4.800504446E-2,4.792958498E-2,-4.689693451E-2
1.982561188E0,-2.541506290E-2,5.047398806E-2,2.707767487E-2
1.992723541E0,-3.520071507E-3,3.853029013E-2,9.503555298E-2
2.002885895E0,8.325159550E-3,5.198770761E-2,9.793758392E-2
2.013048248E0,8.588522673E-3,6.212973595E-2,2.289199829E-2
2.023210602E0,-5.034059286E-3,6.763094664E-2,-2.237606049E-2
2.033372955E0,-5.019605160E-3,7.148683071E-2,3.235721588E-2
2.043535309E0,-1.530113816E-2,7.081440091E-2,6.706333160E-2
2.053728180E0,-3.956401348E-2,6.783953309E-2,-7.401561737E-2
2.063890534E0,-3.811973333E-2,7.349130511E-2,-2.430162430E-1
2.074022370E0,4.874306917E-2,4.830220342E-2,-5.667877197E-2
2.084215241E0,1.008628905E-1,9.318381548E-3,5.395612717E-1
2.094347077E0,1.391585469E-1,1.126921177E-2,4.018325806E-1
2.104539948E0,1.215212941E-1,2.375862002E-2,-1.777648926E-3
2.114702301E0,-2.167940140E-2,4.608091712E-2,-3.704853058E-1
2.124864655E0,-1.221380234E-1,4.720857739E-2,-4.302816391E-1
2.135027008E0,-1.232271492E-1,6.051898003E-3,-1.232366562E-1
2.145189362E0,-3.423178196E-2,-4.130440950E-2,1.972608566E-1
2.155351715E0,5.417665839E-2,-6.859254837E-2,3.116931915E-1
2.165514069E0,6.658875942E-2,-5.824109912E-2,1.622152328E-1
2.175676422E0,1.323881745E-2,8.960455656E-3,-8.124828339E-2
2.185838776E0,-6.978288293E-2,9.648615122E-2,-1.836118698E-1
2.196001129E0,-9.762459993E-2,1.706697643E-1,-1.097974777E-1
2.206163483E0,-7.732331753E-2,2.164811790E-1,2.627849579E-2
2.216325836E0,-2.475473285E-2,1.869417429E-1,8.659744263E-2
2.226488190E0,2.271306515E-2,1.387190223E-1,6.328296661E-2
2.236650543E0,5.109718442E-2,5.735090375E-2,3.103065491E-2
2.246812897E0,4.176545143E-2,-1.901793480E-2,3.022098541E-2
2.256975250E0,2.855601907E-2,-6.250458956E-2,5.548763275E-2
2.267137604E0,7.129937410E-3,-8.366498351E-2,5.946063995E-2
2.277299957E0,5.599141121E-3,-7.040426135E-2,5.433273315E-2
2.287462311E0,6.512314081E-3,-1.969087124E-2,4.685878754E-2
2.297624664E0,1.146954298E-2,1.897591352E-2,4.419136047E-2
2.307787018E0,1.338639855E-2,3.869357705E-2,6.770801544E-2
2.317949371E0,-9.151667356E-3,3.657618165E-2,8.341407776E-2
2.328111725E0,-2.226051688E-2,2.923229337E-2,9.607601166E-2
2.338274079E0,-8.823931217E-3,-4.625022411E-3,8.958911896E-2
2.348466950E0,2.392852306E-2,8.596062660E-3,-3.978633881E-2
2.358629303E0,5.420497060E-2,2.390435338E-2,1.298904419E-3
2.368791657E0,1.879823208E-2,4.829016328E-2,1.074371338E-1
2.378954010E0,-1.295158267E-2,6.043371558E-2,2.734565735E-2
2.389116364E0,4.418164492E-3,6.103369594E-2,-1.148538589E-1
2.399278717E0,3.808018565E-2,6.502741575E-2,-1.317644119E-1
2.409441071E0,5.382767320E-2,4.818639159E-2,-2.094078064E-2
2.419603424E0,2.650737762E-2,4.289624095E-2,3.120613098E-2
2.429765778E0,-9.036630392E-3,2.464935184E-2,-1.435089111E-2
2.439928131E0,-3.653627634E-2,3.211393952E-2,-4.952907562E-2
2.450090485E0,-3.110173345E-2,5.375286937E-2,-6.087303162E-3
2.460252838E0,-2.154713869E-2,8.736726642E-2,1.755714417E-2
2.470415192E0,-1.465851068E-2,1.091947258E-1,1.956462860E-2
2.480577545E0,1.506942511E-2,1.051523983E-1,4.989624023E-2
2.490739899E0,2.925413847E-2,8.969196677E-2,7.250499725E-2
2.500902252E0,3.128591180E-2,6.268620491E-2,9.003925323E-2
2.511064606E0,1.949691772E-2,3.093102574E-2,7.886886597E-2
2.521226959E0,2.033412457E-2,1.546433568E-2,5.853748322E-2
2.531419830E0,3.501772881E-4,-2.862662077E-3,1.729011536E-2
2.541582184E0,-7.927417755E-5,1.228737831E-2,-2.089118958E-2
2.551714020E0,-1.233333349E-2,1.370877028E-2,-3.240203857E-2
2.561906891E0,-1.287311316E-2,2.072858810E-2,-1.255989075E-3
2.572069245E0,-6.452888250E-3,1.581391692E-2,4.358482361E-2
2.582231598E0,-1.197183132E-2,5.878865719E-3,4.742050171E-2
2.592363434E0,-5.361288786E-3,1.226443052E-2,1.104068756E-2
2.602556305E0,-1.079538465E-2,1.389160752E-2,-1.994132996E-2
2.612718659E0,-2.376568317E-2,1.108691096E-2,-3.386116028E-2
2.622881012E0,-8.467018604E-3,2.084898949E-2,-5.099296570E-3
2.633043366E0,6.561607122E-3,1.879119873E-2,1.138210297E-2
2.643205719E0,1.691454649E-2,2.374207973E-2,6.279945374E-3
2.653368073E0,1.804125309E-2,1.665934920E-2,-4.597377777E-2
2.663530426E0,2.998113632E-3,2.403038740E-2,-9.725284576E-2
2.673692780E0,-1.622983813E-2,2.486142516E-2,-6.961727142E-2
2.683855133E0,-3.027310967E-2,2.119711041E-2,9.497642517E-3
2.694017487E0,-6.362646818E-3,3.141286969E-2,8.952903748E-2
2.704179840E0,5.287826061E-4,3.793033957E-2,1.115150452E-1
2.714342194E0,-3.829658031E-3,5.527907610E-2,2.447414398E-2
2.724504547E0,-7.848441601E-3,6.991088390E-2,-3.016281128E-2
2.734666901E0,-8.004963398E-3,7.807192206E-2,2.943897247E-2
2.744829254E0,-2.335786819E-2,9.565332532E-2,7.841682434E-2
2.754991608E0,-5.021324754E-2,8.193570375E-2,4.850292206E-2
2.765153961E0,-6.162208319E-2,7.584363222E-2,-1.629390717E-1
2.775316315E0,-6.147027016E-4,7.197329402E-2,-2.664117813E-1
2.785478668E0,1.103891432E-1,2.756217122E-2,2.208671570E-1
2.795671539E0,1.375837326E-1,-4.497289658E-3,4.333057404E-1
2.805803375E0,1.623748243E-1,-9.549111128E-3,5.248832703E-2
2.815996246E0,4.675468802E-2,-6.009191275E-3,-1.869592667E-1
2.826158600E0,-7.001993060E-2,-1.234051585E-2,-2.759094238E-1
2.836320954E0,-8.486282825E-2,-2.010306716E-2,-1.414813995E-1
2.846483307E0,-5.152228475E-2,-4.563191533E-2,4.968166351E-2
2.856645661E0,5.575150251E-3,-6.095027924E-2,1.929044724E-1
2.866808014E0,5.122533441E-2,-3.011146188E-2,1.708049774E-1
2.876970368E0,2.540498972E-2,4.743450880E-2,-9.055137634E-3
2.887132721E0,-4.300633073E-2,1.296503842E-1,-1.858482361E-1
2.897295075E0,-8.746343851E-2,1.886630654E-1,-2.014455795E-1
2.907457428E0,-8.487260342E-2,1.963851154E-1,-7.530021667E-2
2.917619782E0,-4.164707661E-2,1.707064211E-1,4.371643066E-2
2.927782135E0,1.469543576E-2,1.149367094E-1,7.801342010E-2
2.937944489E0,5.868339539E-2,2.840521932E-2,4.799747467E-2
2.948106842E0,6.717431545E-2,-2.259758115E-2,4.458999634E-2
2.958269196E0,4.091644287E-2,-6.514289975E-2,4.135131836E-2
2.968431549E0,4.545718431E-3,-7.089272141E-2,4.771423340E-2
2.978593903E0,-1.125347614E-2,-6.136012077E-2,3.742027283E-2
2.988756256E0,-1.233622432E-2,-3.361999989E-2,3.209686279E-2
2.998918610E0,-4.366695881E-3,8.055761456E-3,4.580402374E-2
3.009080963E0,1.448884606E-2,1.853024960E-2,6.392288208E-2
3.019243317E0,2.065205574E-2,2.877825499E-2,7.460212708E-2
3.029405670E0,2.903461456E-3,1.244634390E-2,7.564353943E-2
3.039568024E0,-1.207563281E-2,-8.733421564E-3,6.727981567E-2
3.049730377E0,9.000658989E-3,5.789250135E-4,-4.283046722E-2
3.059892731E0,3.689524531E-2,1.204322278E-2,-1.340961456E-2
3.070085602E0,2.507600188E-2,3.013162315E-2,8.825492859E-2
3.080247955E0,-4.933655262E-3,4.317303002E-2,-8.035659790E-3
3.090379791E0,9.273678064E-3,4.505945742E-2,-1.259412766E-1
3.100542145E0,2.301356196E-2,5.020314455E-2,-5.283355713E-2
3.110704498E0,5.304270983E-2,4.330126941E-2,6.976127625E-3
3.120866852E0,4.133462906E-2,6.415726244E-2,-2.621364594E-2
3.131059723E0,-2.195221186E-2,5.807054043E-2,-3.755569458E-2
3.141222077E0,-5.402582884E-2,5.200833082E-2,-2.273750305E-2
3.151384430E0,-3.606441617E-2,6.751281023E-2,-1.283073425E-2
3.161546784E0,-1.649767160E-2,7.815268636E-2,2.055358887E-2
3.171709137E0,2.285808325E-3,9.316530824E-2,5.566692352E-2
3.181871491E0,2.755582333E-2,8.394247293E-2,4.759597778E-2
3.192033844E0,3.334808350E-2,6.531459093E-2,3.261375427E-2
3.202196198E0,2.025684714E-2,4.681485891E-2,2.263832092E-2
3.212358551E0,1.241859794E-2,2.585798502E-2,3.180694580E-2
3.222520905E0,7.493644953E-3,1.866176724E-2,5.260276794E-2
3.232683258E0,8.035719395E-3,-3.517776728E-3,4.474639893E-2
3.242845612E0,-5.149751902E-3,-4.446417093E-3,-8.163452148E-4
3.253007965E0,-1.065999269E-2,1.814305782E-3,-4.553890228E-2
3.263170319E0,-9.376704693E-3,1.301527023E-3,-3.748893738E-2
3.273332672E0,-3.738671541E-3,-1.322954893E-3,1.054668427E-2
3.283495026E0,8.838832378E-3,1.219683886E-2,2.936267853E-2
3.293657379E0,1.704096794E-4,5.831003189E-3,2.427577972E-2
3.303819733E0,-1.201778650E-3,-5.602747202E-3,5.074501038E-3
3.313982086E0,-7.328838110E-3,-2.809822559E-3,-1.870155334E-3
3.324144440E0,-3.949016333E-3,9.489923716E-3,-1.632690430E-3
3.334306793E0,-6.726980209E-4,1.208561659E-2,-3.220176697E-2
3.344469147E0,-1.800000668E-3,9.754866362E-3,-8.825874329E-2
3.354631500E0,-1.215404272E-2,9.954214096E-3,-1.125478745E-1
3.364793854E0,-1.969078183E-2,8.033216000E-3,-6.781673431E-2
3.374956207E0,-1.037409902E-2,3.622412682E-3,2.332687378E-2
3.385118561E0,-1.098215580E-3,3.418177366E-2,8.220195770E-2
3.395311432E0,8.259505033E-3,6.108421087E-2,5.973052979E-2
3.405473786E0,-2.445891500E-2,9.432813525E-2,-3.313827515E-2
3.415636139E0,-3.530880809E-2,1.115769446E-1,-5.814456940E-2
3.425798493E0,-3.542014956E-2,1.225858033E-1,-2.573966980E-3
3.435960846E0,-4.579520226E-2,1.292139590E-1,1.641750336E-2
3.446123200E0,-6.987193227E-2,1.174559295E-1,-1.660947800E-1
3.456285553E0,-3.470405936E-2,8.227473497E-2,-3.637886047E-1
3.466447907E0,6.605437398E-2,2.686211467E-2,6.418991089E-2
3.476610260E0,1.224609911E-1,-5.555510521E-3,5.846481323E-1
3.486772614E0,1.667732596E-1,-3.351479769E-2,3.406105042E-1
3.496934967E0,8.184480667E-2,-1.715078950E-2,-2.880096436E-2
3.507097321E0,-5.544534326E-2,1.423951983E-2,-3.895730972E-1
3.517259674E0,-1.154744029E-1,1.724037528E-2,-3.542690277E-1
3.527422028E0,-8.191740513E-2,-2.762156725E-2,-6.014156342E-2
3.537584381E0,1.649886370E-2,-7.253524661E-2,2.006607056E-1
3.547746735E0,9.160733223E-2,-7.647356391E-2,2.800531387E-1
3.557909088E0,8.168855309E-2,-3.842860460E-2,1.339168549E-1
3.568071442E0,1.168352365E-2,2.313357592E-2,-9.920501709E-2
3.578233795E0,-6.390321255E-2,1.122309566E-1,-2.222156525E-1
3.588396149E0,-8.534815907E-2,1.817586720E-1,-1.815299988E-1
3.598558502E0,-5.272594094E-2,2.008762062E-1,-3.296184540E-2
3.608720856E0,-4.655659199E-3,1.832216084E-1,7.443141937E-2
3.618883209E0,3.154149652E-2,1.293002367E-1,9.794139862E-2
3.629045563E0,4.449516535E-2,6.502783298E-2,5.218410492E-2
3.639238434E0,1.294258237E-2,1.405122876E-2,4.272460938E-3
3.649400788E0,-1.052317023E-2,-2.334854007E-2,-2.432823181E-2
3.659563141E0,-6.961941719E-3,-2.054956555E-2,-4.996299744E-3
3.669725495E0,1.146242023E-2,-1.340150833E-3,-2.416610718E-3
3.679887848E0,1.310214400E-2,2.251747251E-2,2.644634247E-2
3.690050202E0,7.057279348E-3,5.125707388E-2,4.324150085E-2
3.700212555E0,5.246371031E-3,5.156582594E-2,4.562091827E-2
3.710374909E0,-1.121550798E-2,3.501233459E-2,5.713272095E-2
3.720537262E0,-2.998557687E-2,2.564066648E-2,5.621528625E-2
3.730699616E0,-2.015960217E-2,1.144626737E-2,6.235408783E-2
3.740861969E0,2.990588546E-2,8.990645409E-3,-4.023075104E-2
3.751024323E0,3.138598800E-2,2.746132016E-2,4.581928253E-2
3.761186676E0,-8.322089911E-3,5.233633518E-2,1.063928604E-1
3.771349030E0,-2.709546685E-2,6.251674891E-2,-1.836967468E-2
3.781511383E0,-4.145652056E-3,6.877842546E-2,-1.335878372E-1
3.791673737E0,2.300423384E-2,7.390195131E-2,-1.169643402E-1
3.801836090E0,4.230380058E-2,7.031169534E-2,-2.980327606E-2
3.811998444E0,2.336540818E-2,6.910216808E-2,2.499961853E-2
3.822135605E0,-6.584614515E-3,4.835101962E-2,-2.496814728E-2
3.832297959E0,-2.887752652E-2,5.603736639E-2,-5.747795105E-2
3.842460312E0,-3.475216031E-2,7.105842233E-2,-4.385948181E-3
3.852622666E0,-1.030427217E-2,7.182654738E-2,2.881908417E-2
3.862785019E0,4.084974527E-3,9.401580691E-2,4.011917114E-2
3.872947373E0,1.555860043E-2,8.763489127E-2,3.947925568E-2
3.883109726E0,2.161118388E-2,8.858683705E-2,4.588794708E-2
3.893302597E0,1.558798552E-2,7.308316231E-2,4.032135010E-2
3.903434433E0,1.922383904E-2,5.030071735E-2,7.045269012E-2
3.913627304E0,1.118656993E-2,3.415393829E-2,9.051704407E-2
3.923789658E0,-3.033548594E-3,1.962766051E-2,3.704833984E-2
3.933952012E0,-4.276454449E-3,9.776055813E-3,-4.137229919E-2
3.944114365E0,6.387025118E-3,1.709124446E-2,-5.220127106E-2
3.954276719E0,1.161393523E-2,2.258130908E-2,-8.708000183E-3
3.964439072E0,9.151518345E-3,2.822524309E-2,3.875923157E-2
3.974601426E0,1.846849918E-3,3.114813566E-2,3.102779388E-2
3.984763779E0,-5.270302296E-3,3.842166066E-2,-1.754760742E-4
3.994926133E0,-2.179974318E-2,2.915963531E-2,-2.132797241E-2
4.005088486E0,-9.947508574E-3,3.705292940E-2,-2.323627472E-2
4.015250840E0,1.346901059E-2,2.629688382E-2,-8.618354797E-3
4.025413193E0,3.668665886E-3,2.298876643E-2,-8.534431458E-3
4.035575547E0,-5.407363176E-3,1.952883601E-2,-6.748199463E-2
4.045737900E0,-6.656706333E-3,1.641651988E-2,-1.040868759E-1
4.055900254E0,-7.989108562E-3,1.614123583E-2,-6.916999817E-2
4.066062607E0,6.694883108E-3,1.868727803E-2,2.185249329E-2
4.076224961E0,6.555348635E-3,3.976339102E-2,1.017951965E-1
4.086387314E0,-3.332197666E-4,5.479130149E-2,6.696033478E-2
4.096549668E0,-6.182849407E-3,7.393553853E-2,-2.854156494E-2
4.106712021E0,-1.445165277E-2,9.086728096E-2,-5.864620209E-2
4.116874375E0,-3.529495001E-2,9.162080288E-2,-2.694797516E-2
4.127036728E0,-5.395177007E-2,8.362728357E-2,-8.355617523E-2
4.137199082E0,-7.118126750E-2,7.488921285E-2,-2.783489227E-1
4.147391953E0,-4.253596067E-3,5.226242542E-2,-1.836414337E-1
4.157554306E0,9.027469158E-2,1.191121340E-2,4.107017517E-1
4.167716660E0,1.028206646E-1,-1.093298197E-3,5.681352615E-1
4.177879013E0,1.369784474E-1,1.905494928E-2,1.592941284E-1
4.188041367E0,1.721882820E-2,6.337493658E-2,-2.000856400E-1
4.198203721E0,-9.339478612E-2,7.724878192E-2,-4.304790497E-1
4.208366074E0,-1.257444322E-1,5.684846640E-2,-2.909612656E-1
4.218528428E0,-5.917879939E-2,1.171052456E-2,2.534961700E-2
4.228690781E0,4.859995842E-2,-3.523671627E-2,2.797012329E-1
4.238853135E0,9.694147110E-2,-7.081979513E-2,2.701215744E-1
4.249015488E0,6.874385476E-2,-4.677584767E-2,3.193664551E-2
4.259177842E0,-1.854020357E-2,2.629891038E-2,-1.666269302E-1
4.269340195E0,-6.888628006E-2,1.062058210E-1,-1.871404648E-1
4.279502549E0,-8.756807446E-2,1.676766574E-1,-7.056140900E-2
4.289664902E0,-4.155972600E-2,1.907300949E-1,6.072711945E-2
4.299827256E0,-2.633124590E-3,1.684598923E-1,1.199731827E-1
4.309989609E0,1.788413525E-2,1.188051403E-1,6.926155090E-2
4.320151963E0,1.312622428E-2,5.610409379E-2,2.073287964E-3
4.330314316E0,-3.110766411E-4,2.269983292E-3,-3.140735626E-2
4.340476670E0,-1.079368591E-2,-2.530488372E-2,-3.369045258E-2
4.350639023E0,-6.753832102E-3,-2.633768320E-2,-1.684761047E-2
4.360801377E0,1.857540011E-2,-1.288843155E-2,1.187133789E-2
4.370963730E0,2.906906605E-2,7.856100798E-3,3.092670441E-2
4.381156601E0,1.973271370E-2,2.868705988E-2,4.750347137E-2
4.391318955E0,2.639412880E-3,2.063208818E-2,7.542133331E-2
4.401481308E0,-2.177989483E-2,2.644982934E-2,1.094818115E-1
4.411643662E0,-1.280468702E-2,1.276722550E-2,1.027669907E-1
4.421806015E0,1.297453046E-2,1.031029224E-2,2.767276764E-2
4.431968369E0,4.624399543E-2,1.920592785E-2,-5.994892120E-2
4.442130722E0,2.149888873E-2,5.650112033E-2,6.642532349E-2
4.452293076E0,-3.315657377E-3,6.702211499E-2,9.346008301E-2
4.462455429E0,-5.032896996E-3,6.561794877E-2,-1.067733765E-1
4.472617783E0,2.232700586E-2,6.300258636E-2,-1.590795517E-1
4.482780137E0,4.317602515E-2,6.641221046E-2,-3.356075287E-2
4.492942490E0,2.802065015E-2,7.205241919E-2,1.878261566E-2
4.503104844E0,-2.494752407E-4,6.040084362E-2,-4.306888580E-2
4.513267197E0,-2.549219131E-2,6.045040488E-2,-7.537746429E-2
4.523429551E0,-3.668561578E-2,7.012999058E-2,-3.870677948E-2
4.533591904E0,-2.417692542E-2,8.946639299E-2,-1.220417023E-2
4.543754258E0,-7.304906845E-3,9.713453054E-2,-1.208400726E-2
4.553916611E0,4.114329815E-3,1.075137556E-1,6.886482239E-3
4.564078965E0,1.478740573E-2,9.452897310E-2,3.967952728E-2
4.574241318E0,2.499246597E-2,5.809614062E-2,7.187747955E-2
4.584403672E0,2.804896235E-2,5.482402444E-2,7.757282257E-2
4.594566025E0,1.476269960E-2,3.429505229E-2,7.847595215E-2
4.604728379E0,9.134650230E-3,2.745231986E-2,6.761741638E-2
4.614890732E0,1.468151808E-3,2.744734287E-2,3.328514099E-2
4.625053086E0,-1.768970490E-2,2.272310853E-2,-7.582664490E-3
4.635215439E0,-2.921345830E-2,2.825492620E-2,-4.998970032E-2
4.645377793E0,-1.945364475E-2,1.545944810E-2,-3.741359711E-2
4.655540146E0,-1.010119915E-2,1.271739602E-2,5.628585815E-3
4.665702500E0,6.110399961E-3,1.244884729E-2,1.713085175E-2
4.675864853E0,-6.283909082E-3,7.337003946E-3,-6.944656372E-3
4.686057724E0,-2.161502838E-3,1.208320260E-2,-2.585601807E-2
4.696220078E0,-5.550622940E-3,2.910971642E-2,-3.035545349E-2
4.706382431E0,6.956160069E-4,3.453332186E-2,-2.295494080E-2
4.716544785E0,9.468644857E-3,3.267934918E-2,1.742935181E-2
4.726707138E0,2.092361450E-2,4.225531220E-2,3.114986420E-2
4.736869492E0,1.618027687E-2,3.961619735E-2,6.819725037E-3
4.747031846E0,7.267892361E-3,4.156565666E-2,-7.848453522E-2
4.757194199E0,-2.240383625E-2,3.925141692E-2,-1.268501282E-1
4.767356553E0,-3.277784586E-2,4.033705592E-2,-9.646606445E-2
4.777518906E0,-1.992768049E-2,3.243580461E-2,4.295349121E-3
4.787681260E0,6.376534700E-3,2.638810873E-2,8.201789856E-2
4.797843613E0,2.031627297E-2,4.303136468E-2,7.802677155E-2
4.808005967E0,1.095479727E-2,6.101018190E-2,-8.461952209E-3
4.818168320E0,-5.111694336E-3,7.157605886E-2,-3.428363800E-2
4.828330674E0,-7.586658001E-3,8.489653468E-2,4.652690887E-2
4.838493027E0,-2.979204059E-2,8.621171117E-2,8.098697662E-2
4.848655381E0,-6.320053339E-2,8.763802052E-2,-9.813499451E-2
4.858817734E0,-3.777951002E-2,9.066766500E-2,-2.973728180E-1
4.868980088E0,5.540880561E-2,6.307899952E-2,-8.651447296E-2
4.879142441E0,1.086136997E-1,5.146294832E-3,4.772062302E-1
4.889335312E0,1.176337004E-1,-4.231303930E-3,3.380117416E-1
4.899497666E0,1.279392838E-1,4.711657763E-3,-6.215763092E-2
4.909660019E0,-4.723697901E-3,1.878535748E-2,-3.305778503E-1
4.919822373E0,-1.046110988E-1,2.951455116E-2,-3.368721008E-1
4.929984726E0,-1.023223698E-1,-6.044507027E-3,-8.103370667E-2
4.940147080E0,-1.863920689E-2,-3.439590335E-2,1.727981567E-1
4.950309433E0,5.312237144E-2,-4.761004448E-2,2.735824585E-1
4.960471787E0,5.632975698E-2,-2.286216617E-2,1.248521805E-1
4.970634140E0,3.924190998E-3,3.786408901E-2,-1.013936996E-1
4.980796494E0,-7.089385390E-2,1.190872490E-1,-2.080888748E-1
4.990958847E0,-1.121428907E-1,1.870368421E-1,-1.691188812E-1
5.001121201E0,-7.947441936E-2,1.984820366E-1,-4.853630066E-2
5.011283554E0,-2.739185095E-2,1.640851200E-1,4.860687256E-2
5.021445908E0,2.862337232E-2,1.039908528E-1,7.794094086E-2
5.031608262E0,4.191711545E-2,2.720254660E-2,4.786968231E-2
5.041770615E0,3.481221199E-2,-2.615967393E-2,2.551746368E-2
5.051932969E0,9.960323572E-3,-6.125560403E-2,2.725124359E-2
5.062095322E0,-3.940582275E-3,-6.169041991E-2,1.963329315E-2
5.072257676E0,-2.956181765E-3,-3.933715820E-2,-2.021789551E-3
5.082420029E0,2.102851868E-4,-7.717430592E-3,7.425308228E-3
5.092582383E0,4.873514175E-3,2.372199297E-2,2.850341797E-2
5.102744736E0,6.284475327E-3,2.168023586E-2,5.621814728E-2
5.112907090E0,9.643375874E-3,1.964390278E-2,8.584976196E-2
5.123069443E0,7.828772068E-4,1.236182451E-2,9.132862091E-2
5.133262314E0,3.835082054E-3,2.384305000E-3,7.779026031E-2
5.143424668E0,3.114256263E-2,6.119281054E-3,-5.600738525E-2
5.153556504E0,3.433844447E-2,2.867108583E-2,1.599502563E-2
5.163749375E0,1.046654582E-2,6.272837520E-2,7.927131653E-2
5.173911728E0,-7.214933634E-3,7.283899188E-2,-4.998016357E-2
5.184074082E0,1.653844118E-2,7.204580307E-2,-1.413011551E-1
5.194236435E0,4.436177015E-2,6.265911460E-2,-9.891319275E-2
5.204398789E0,5.027717352E-2,6.090778112E-2,-4.061317444E-2
5.214561142E0,1.137131453E-2,5.612429976E-2,2.412796021E-3
5.224723496E0,-3.830036521E-2,3.392302990E-2,-2.145671844E-2
5.234885849E0,-3.956559300E-2,4.245346785E-2,-5.886459351E-2
5.245048203E0,-2.955523133E-2,6.540632248E-2,-2.714061737E-2
5.255210556E0,-1.353475451E-2,8.121919632E-2,3.226470947E-2
5.265372910E0,1.588743925E-2,1.042544246E-1,3.858757019E-2
5.275535263E0,2.076929808E-2,8.189448714E-2,4.954051971E-2
5.285697617E0,2.993723750E-2,6.699603796E-2,6.030368805E-2
5.295859971E0,3.184279799E-2,5.201646686E-2,5.909538269E-2
5.306022324E0,2.243021131E-2,2.496442199E-2,5.319690704E-2
5.316184678E0,9.113401175E-3,2.826768160E-2,4.275512695E-2
5.326347031E0,1.362174749E-3,9.849101305E-3,8.868217468E-3
5.336509385E0,-2.249863744E-2,3.695517778E-3,-3.629112244E-2
5.346671738E0,-1.533165574E-2,-4.108279943E-3,-4.513835907E-2
5.356834092E0,-1.110911369E-2,4.812479019E-4,4.405975342E-4
5.366996445E0,-1.904940605E-2,-9.227484465E-3,3.337001801E-2
5.377158799E0,-8.021563292E-3,-2.576142550E-3,2.796649933E-2
5.387321152E0,-1.123899221E-2,-3.754109144E-3,6.134986877E-3
5.397483506E0,-1.451873779E-2,9.289801121E-3,-1.052856445E-2
5.407676377E0,8.604824543E-4,1.989737153E-2,-3.169918060E-2
5.417838730E0,8.754104376E-3,2.822190523E-2,-2.657127380E-2
5.428001084E0,1.191076636E-2,2.496060729E-2,-3.807449341E-2
5.438163437E0,1.050457358E-2,3.833103180E-2,-8.485794067E-2
5.448325791E0,-1.420813799E-2,2.588021755E-2,-1.071777344E-1
5.458488144E0,-2.879410982E-2,2.343219519E-2,-7.710838318E-2
5.468650498E0,-2.856063843E-2,2.353328466E-2,-1.914787292E-2
5.478812851E0,-1.181352139E-2,2.319610119E-2,6.139850616E-2
5.488975205E0,9.444117546E-3,4.304146767E-2,7.444953918E-2
5.499137558E0,-6.841093302E-3,6.654208899E-2,-7.252693176E-3
5.509299912E0,-1.320895553E-2,7.343348861E-2,-2.352428436E-2
5.519462265E0,-8.612483740E-3,8.554822206E-2,4.070377350E-2
5.529624619E0,-9.571373463E-3,9.021437168E-2,6.822204590E-2
5.539786972E0,-3.385701776E-2,9.224554896E-2,-2.075386047E-2
5.549949326E0,-4.257011414E-2,8.107274771E-2,-2.639045715E-1
5.560111679E0,4.168239236E-2,5.607572198E-2,-2.142419815E-1
5.570274033E0,1.150447130E-1,-9.196698666E-4,4.183139801E-1
5.580436387E0,1.303215027E-1,-2.350050211E-2,3.768739700E-1
5.590598740E0,1.334485710E-1,-1.864770055E-2,-4.516124725E-2
5.600761094E0,-1.480802894E-2,1.230606437E-2,-2.404108047E-1
5.610923447E0,-8.850881457E-2,5.418211222E-3,-2.434129715E-1
5.621085801E0,-7.711386681E-2,-1.239609718E-2,-9.068775177E-2
5.631248154E0,-2.913147211E-2,-4.832771420E-2,5.716896057E-2
5.641441025E0,4.279941320E-2,-6.729334593E-2,1.743717194E-1
5.651603379E0,6.028959155E-2,-2.101060748E-2,1.360235214E-1
5.661765732E0,8.662581444E-3,4.877460003E-2,-4.327011108E-2
5.671928086E0,-5.740094185E-2,1.237698495E-1,-2.076234818E-1
5.682090439E0,-7.841488719E-2,1.874259114E-1,-1.921968460E-1
5.692252793E0,-7.594040036E-2,1.970239580E-1,-6.615447998E-2
5.702415146E0,-1.587373018E-2,1.632873416E-1,4.572391510E-2
5.712577500E0,1.458525658E-2,9.427666664E-2,7.769966125E-2
5.722739853E0,4.737633467E-2,1.593410969E-2,4.546451569E-2
5.732902207E0,4.259225726E-2,-4.375500977E-2,4.928302765E-2
5.743064560E0,1.084899902E-2,-6.903403997E-2,4.366397858E-2
5.753226914E0,-7.113218307E-3,-6.040278077E-2,2.403068542E-2
5.763389267E0,-2.797216177E-3,-3.162795305E-2,2.456665039E-3
5.773551621E0,-3.526091576E-3,-8.093029261E-3,1.671409607E-2
5.783713974E0,9.271860123E-3,8.091196418E-3,4.250335693E-2
5.793876328E0,2.113804221E-2,2.889627218E-2,5.599498749E-2
5.804038681E0,1.805502176E-2,1.112203300E-2,5.980300903E-2
5.814201035E0,8.226335049E-4,-4.367157817E-3,6.119823456E-2
5.824363388E0,6.889402866E-4,-3.682851791E-3,5.780601501E-2
5.834525742E0,1.071166992E-2,-6.315708160E-3,-6.616497040E-2
5.844688096E0,2.748897672E-2,3.345513344E-2,6.252288818E-3
5.854850449E0,1.191976666E-2,5.320745707E-2,8.880233765E-2
5.865012803E0,-4.819691181E-3,5.368083715E-2,-3.569030762E-2
5.875175156E0,3.309428692E-3,6.217223406E-2,-1.293573380E-1
5.885368027E0,2.038210630E-2,5.486130714E-2,-6.562519073E-2
5.895530381E0,4.214125872E-2,6.187459826E-2,-3.376770020E-2
5.905662217E0,2.178508043E-2,6.815400720E-2,-3.066349030E-2
5.915855088E0,-7.459789515E-3,5.949068069E-2,-2.995967865E-2
5.926017441E0,-2.906894684E-2,5.304083228E-2,-3.875827789E-2
5.936179795E0,-2.001008391E-2,7.273840904E-2,-1.188373566E-2
5.946342148E0,-4.572808743E-3,8.256581426E-2,3.579235077E-2
5.956504502E0,1.272192597E-2,9.685504436E-2,4.708290100E-2
5.966666855E0,8.217126131E-3,9.654781222E-2,4.408931732E-2
5.976829209E0,5.877375603E-3,7.765227556E-2,2.924442291E-2
5.986991562E0,1.026123762E-3,4.954731464E-2,3.362941742E-2
5.997153916E0,8.400499821E-3,4.562085867E-2,4.741573334E-2
6.007316269E0,1.111713052E-2,3.431600332E-2,5.383491516E-2
6.017478623E0,2.318590879E-3,1.381009817E-3,3.655147552E-2
6.027640976E0,-5.966186523E-3,-6.391704082E-4,-8.827209473E-3
6.037803330E0,-1.151123643E-2,-1.463592052E-4,-4.389858246E-2
6.047965683E0,-5.441904068E-3,-6.283551455E-3,-2.873420715E-2
6.058128037E0,2.282232046E-3,-7.444739342E-3,1.923561096E-2
6.068290390E0,2.260208130E-4,-6.239533424E-3,4.024505615E-2
6.078452744E0,-1.684725285E-3,1.624226570E-3,3.021621704E-2
6.088615097E0,-3.490865231E-3,8.900135756E-3,1.571655273E-2
6.098777451E0,-1.958352327E-2,1.601335406E-2,-2.459812164E-2
6.108939804E0,-7.159620523E-3,1.856717467E-2,-2.639579773E-2
6.119102158E0,-2.088308334E-3,2.377331257E-2,-3.283405304E-2
6.129264512E0,8.159279823E-4,1.249322295E-2,-6.758499146E-2
6.139426865E0,-9.975284338E-3,8.544713259E-3,-1.088075638E-1
6.149619736E0,-1.076164842E-2,1.917046309E-2,-1.067075729E-1
6.159782090E0,-2.327701449E-2,2.757835388E-2,-3.380298615E-2
6.169944443E0,-1.225706935E-2,4.505279660E-2,4.967308044E-2
6.180106797E0,-6.069630384E-3,5.206090212E-2,7.496643066E-2
6.190269150E0,7.336735725E-4,7.955998182E-2,-4.052162170E-3
6.200431504E0,-8.696645498E-3,1.043292582E-1,-3.903102875E-2
6.210593857E0,-1.853516698E-2,1.082623601E-1,2.145767212E-3
6.220756211E0,-3.392916918E-2,1.174284220E-1,9.376525879E-3
6.230918564E0,-6.801262498E-2,1.082302928E-1,-1.565113068E-1
6.241080918E0,-5.457165837E-2,8.955031633E-2,-3.757190704E-1
6.251243271E0,4.420974851E-2,5.775740743E-2,-4.450321198E-2
6.261405625E0,1.033559442E-1,-4.628121853E-3,6.127815247E-1
6.271567978E0,1.729414761E-1,-7.688939571E-3,4.365453720E-1
6.281730332E0,9.677046537E-2,5.894511938E-3,8.450126648E-2
6.291892685E0,-3.791874647E-2,4.252824187E-2,-3.420667648E-1
6.302055039E0,-1.039492190E-1,5.780899525E-2,-4.658031464E-1
6.312217392E0,-1.150245070E-1,1.993706822E-2,-2.099180222E-1
6.322379746E0,-2.467176318E-2,-3.910037875E-2,1.194629669E-1
6.332542099E0,7.041901350E-2,-6.816065311E-2,3.179426193E-1
6.342704453E0,1.026496887E-1,-6.323447824E-2,2.314710617E-1
6.352866806E0,4.623389244E-2,-2.162620425E-2,-1.220607758E-2
6.363029160E0,-3.727558255E-2,6.134730577E-2,-1.955518723E-1
6.373191513E0,-8.753588796E-2,1.386132240E-1,-1.875925064E-1
6.383353867E0,-7.833465934E-2,1.912947595E-1,-4.854202271E-2
6.393516221E0,-3.227248788E-2,1.958053112E-1,6.844329834E-2
6.403678574E0,6.510704756E-3,1.620461047E-1,1.134719849E-1
6.413840928E0,2.704468369E-2,9.866991639E-2,6.526374817E-2
6.424033799E0,1.279971004E-2,4.390063882E-2,2.964019775E-3
6.434196152E0,-2.968013287E-3,2.719968557E-3,-1.847648621E-2
6.444358506E0,-8.622050285E-3,-2.444782853E-2,-2.787971497E-2
6.454520859E0,7.564812899E-3,-2.058252692E-2,-8.562088013E-3
6.464683213E0,6.667494774E-3,4.931211472E-3,1.785755157E-2
6.474845566E0,1.238265634E-2,1.616558433E-2,5.374431610E-2
6.485007920E0,8.014410734E-3,2.988222241E-2,7.756042480E-2
6.495170273E0,8.177161217E-4,4.340544343E-2,7.500743866E-2
6.505332627E0,-1.139938831E-2,3.986907005E-2,8.680629730E-2
6.515494980E0,-9.328126907E-3,3.320926428E-2,9.787273407E-2
6.525657334E0,5.065709352E-3,2.343583107E-2,-1.029682159E-2
6.535819687E0,2.910384536E-2,4.209563136E-2,-2.860450745E-2
6.545982041E0,1.625761390E-2,6.278190017E-2,9.717655182E-2
6.556144394E0,-1.506859064E-2,7.116252184E-2,4.576206207E-2
6.566306748E0,2.916216850E-3,7.995042205E-2,-1.226463318E-1
6.576469101E0,3.018766642E-2,8.997583389E-2,-1.415939331E-1
6.586631455E0,3.021046519E-2,7.267552614E-2,-3.750991821E-2
6.596793808E0,2.515286207E-2,6.993642449E-2,1.729583740E-2
6.606956162E0,1.395243406E-2,4.777553678E-2,-4.208087921E-2
6.617118515E0,-2.059978247E-2,4.219436646E-2,-5.539608002E-2
6.627311387E0,-2.686259151E-2,4.865464568E-2,-2.133464813E-2
6.637473740E0,-1.674067974E-2,6.964671612E-2,2.586364746E-3
6.647636094E0,-7.043719292E-3,8.818840981E-2,7.234573364E-3
6.657798447E0,6.807804108E-3,9.726929665E-2,3.546619415E-2
6.667960801E0,1.521754265E-2,8.974167705E-2,6.550693512E-2
6.678123154E0,1.873913407E-2,7.978862524E-2,7.608318329E-2
6.688285508E0,1.998731494E-2,5.750882626E-2,8.428668976E-2
6.698447861E0,1.196575165E-2,3.241372108E-2,8.756256104E-2
6.708610215E0,2.087277174E-2,3.057563305E-2,6.007766724E-2
6.718772568E0,-7.645457983E-3,1.198157668E-2,-1.177883148E-2
6.728934922E0,-1.878508925E-2,1.524046063E-2,-4.448604584E-2
6.739097275E0,-8.653402328E-3,3.093692660E-2,-2.943992615E-2
6.749259629E0,3.351092339E-3,3.262683749E-2,2.543067932E-2
6.759421982E0,5.713075399E-3,3.417292237E-2,2.967834473E-2
6.769584336E0,-1.456230879E-3,3.061592579E-2,5.513191223E-3
6.779746689E0,-8.615136147E-3,2.486819029E-2,-3.243255615E-2
6.789909043E0,-8.721470833E-3,3.854686022E-2,-5.314922333E-2
6.800071396E0,-1.133587956E-2,3.134247661E-2,-4.054641724E-2
6.810233750E0,9.664773941E-3,3.163856268E-2,-4.493713379E-3
6.820426621E0,9.439975023E-3,3.646132350E-2,1.208305359E-2
6.830558457E0,1.194196939E-2,2.661016583E-2,2.460479736E-3
6.840751328E0,5.211412907E-3,3.085303307E-2,-1.407909393E-2
6.850883164E0,-1.323240995E-2,3.745988011E-2,-1.844024658E-2
6.861076035E0,1.654684544E-3,5.822333694E-2,1.736831665E-2
6.871238388E0,1.941710711E-3,6.678834558E-2,3.596401215E-2
6.881400742E0,4.651665688E-3,6.082969904E-2,2.826023102E-2
6.891563096E0,5.102783442E-3,6.190946698E-2,-2.184963226E-2
6.901725449E0,-8.363127708E-3,6.550770998E-2,-5.924224854E-2
6.911887803E0,-1.912051439E-2,5.546075106E-2,-7.709312439E-2
6.922050156E0,-1.307949424E-2,3.430140018E-2,-3.562450409E-2
6.932212510E0,4.338651896E-3,3.014093637E-2,3.822517395E-2
6.942374863E0,1.861867309E-2,3.512251377E-2,1.155414581E-1
6.952537217E0,2.319526672E-2,3.915202618E-2,1.041336060E-1
6.962699570E0,2.299815416E-3,5.432525277E-2,3.156661987E-3
6.972861924E0,-1.095670462E-2,5.999529362E-2,-4.169368744E-2
6.983024277E0,-5.756258965E-3,6.615275145E-2,1.579856873E-2
6.993186631E0,-2.723008394E-2,5.578327179E-2,2.963066101E-2
7.003348984E0,-3.846424818E-2,6.953871250E-2,-1.603155136E-1
7.013511338E0,-1.468548179E-2,5.882412195E-2,-3.253040314E-1
7.023673691E0,5.328303576E-2,2.516078949E-2,-6.175804138E-2
7.033836045E0,8.613106608E-2,-1.024946570E-2,5.272750854E-1
7.043998398E0,1.300262213E-1,4.611432552E-3,3.475551605E-1
7.054160752E0,1.057074964E-1,2.486395836E-2,-7.209777832E-4
7.064323105E0,-4.261586070E-2,5.440169573E-2,-3.764705658E-1
7.074485459E0,-1.334726810E-1,4.372942448E-2,-4.408245087E-1
7.084647812E0,-1.159664392E-1,1.035401225E-2,-1.477365494E-1
7.094810166E0,-2.802264690E-2,-2.903288603E-2,2.063484192E-1
7.104972519E0,6.422406435E-2,-5.575764179E-2,3.489465714E-1
7.115134873E0,8.288386464E-2,-3.654369712E-2,1.989736557E-1
7.125297226E0,2.425876260E-2,7.792860270E-3,-6.147384644E-2
7.135459580E0,-5.641841888E-2,7.925796509E-2,-1.876325607E-1
7.145652451E0,-8.171582222E-2,1.442703009E-1,-1.300477982E-1
7.155814804E0,-6.104078889E-2,1.903140247E-1,4.282951355E-3
7.165977158E0,-1.975890994E-2,1.846690178E-1,9.360408783E-2
7.176139512E0,1.915264130E-2,1.441011727E-1,1.042823792E-1
7.186301865E0,1.845183969E-2,7.717531919E-2,4.410362244E-2
7.196464219E0,1.172676682E-2,1.873850822E-2,-1.102256775E-2
7.206626572E0,3.345608711E-3,-1.625564694E-2,-3.679275513E-2
7.216788926E0,2.755522728E-3,-2.000612020E-2,-2.686405182E-2
7.226951279E0,9.164541960E-3,4.629194736E-4,6.686210632E-3
7.237113633E0,1.973879337E-2,1.656082273E-2,3.530216217E-2
7.247275986E0,2.254799008E-2,4.718488455E-2,5.665302277E-2
7.257438340E0,8.097678423E-3,5.589231849E-2,4.651165009E-2
7.267600693E0,-4.364788532E-3,3.816559911E-2,5.980682373E-2
7.277763047E0,-2.416604757E-2,2.287408710E-2,7.997703552E-2
7.287925400E0,-1.521575451E-2,-6.779640913E-3,8.556938171E-2
7.298087754E0,6.050735712E-3,-8.326172829E-3,1.067924500E-2
7.308250107E0,3.007584810E-2,8.967161179E-3,-3.886508942E-2
7.318412461E0,1.484337449E-2,4.718792439E-2,8.229827881E-2
7.328574814E0,-5.018949509E-3,5.151885748E-2,6.877899170E-2
7.338737168E0,-1.131099463E-2,6.563416123E-2,-1.097049713E-1
7.348899521E0,2.050232887E-2,7.613164186E-2,-1.171302795E-1
7.359061875E0,2.461484075E-2,7.356339693E-2,-2.790355682E-2
7.369254746E0,1.915493608E-2,5.934706330E-2,-8.753776550E-3
7.379417099E0,-9.235233068E-3,4.232662916E-2,-3.005504608E-2
7.389579453E0,-2.525049448E-2,2.991607785E-2,-3.670501709E-2
7.399741806E0,-2.246454358E-2,5.306097865E-2,-1.254653931E-2
7.409904160E0,-8.190959692E-3,7.831245661E-2,-1.721858978E-2
7.420066513E0,-8.434951305E-3,8.931630850E-2,-2.888965607E-2
7.430228867E0,1.215022802E-2,1.057444513E-1,-4.959106445E-3
7.440391221E0,1.985847950E-2,1.010444164E-1,5.162334442E-2
7.450553574E0,2.481114864E-2,7.981368899E-2,9.063053131E-2
7.460715928E0,3.948128223E-2,7.230341434E-2,8.177757263E-2
7.470878281E0,3.565156460E-2,5.230262876E-2,7.319259644E-2
7.481040635E0,1.810440421E-2,4.144433141E-2,5.999946594E-2
7.491202988E0,-1.059719920E-2,4.218974710E-2,6.882667542E-3
7.501365342E0,-2.671581507E-2,3.126949072E-2,-3.820419312E-2
7.511527695E0,-2.371501923E-2,2.599346638E-2,-5.181026459E-2
7.521690049E0,-9.484380484E-3,2.119800448E-2,-1.085376740E-2
7.531852402E0,-5.901157856E-4,1.210016012E-2,3.644180298E-2
7.542014756E0,5.822747946E-3,7.412761450E-3,4.037666321E-2
7.552177109E0,-4.349917173E-3,-7.057458162E-3,8.787155151E-3
7.562339463E0,-1.917698979E-2,2.271622419E-3,-3.403568268E-2
7.572501816E0,-2.208337188E-2,1.661705971E-2,-5.251693726E-2
7.582664170E0,-1.099109650E-2,2.197575569E-2,-5.176258087E-2
7.592826523E0,7.093340158E-3,2.287203074E-2,-3.821372986E-3
7.602988877E0,1.105657220E-2,2.598667145E-2,5.487442017E-3
7.613181748E0,-8.351027966E-3,2.852511406E-2,5.253791809E-3
7.623344101E0,-1.120090485E-3,4.038122296E-2,-1.388740540E-2
7.633506455E0,-8.053392172E-3,4.967656732E-2,-2.561664581E-2
7.643668808E0,-1.035210490E-2,5.189430714E-2,-4.183483124E-2
7.653831162E0,-1.299479604E-2,6.140646338E-2,-2.706432343E-2
7.663993515E0,-1.085740328E-2,6.372937560E-2,6.336212158E-3
7.674155869E0,-3.960877657E-3,7.291403413E-2,3.446006775E-2
7.684318222E0,1.505747437E-2,7.214763761E-2,3.131866455E-2
7.694480576E0,1.747700572E-2,6.401100755E-2,2.334594727E-3
7.704642929E0,1.504045725E-2,4.915133119E-2,-2.380275726E-2
7.714805283E0,8.102059364E-4,4.189100862E-2,-2.586078644E-2
7.724967637E0,-1.531085372E-2,3.500899673E-2,-2.787685394E-2
7.735129990E0,-1.899746060E-2,2.596843243E-2,-1.476287842E-3
7.745292344E0,-1.594245434E-3,2.179995179E-2,5.764961243E-2
7.755454697E0,2.439039946E-2,1.703229547E-2,1.014699936E-1
7.765617051E0,3.346908092E-2,3.533065319E-2,6.181240082E-2
7.775779404E0,1.681771874E-2,4.121521115E-2,-5.435943604E-3
7.785941758E0,2.593845129E-3,5.459079146E-2,-2.894592285E-2
7.796104111E0,-5.819201469E-4,5.664014816E-2,2.566432953E-2
7.806266465E0,-2.092027664E-2,5.380889773E-2,3.919792175E-2
7.816428818E0,-6.629621983E-2,5.558893085E-2,-1.155281067E-1
7.826621689E0,-2.847594023E-2,4.443606734E-2,-2.908296585E-1
7.836784043E0,6.544327736E-2,2.903416753E-2,-9.878253937E-2
7.846946396E0,1.186515689E-1,-2.519786358E-3,3.821563721E-1
7.857108750E0,1.299026310E-1,-2.313482761E-2,1.928663254E-1
7.867271103E0,9.494680166E-2,-1.049262285E-2,-8.199596405E-2
7.877433457E0,-3.043195605E-2,-5.005896091E-4,-2.508916855E-1
7.887595810E0,-1.183768511E-1,-6.832480431E-3,-2.396306992E-1
7.897758164E0,-1.064478755E-1,-2.960458398E-2,-6.577873230E-2
7.907920517E0,-3.892719746E-2,-5.462762713E-2,1.146936417E-1
7.918082871E0,4.496484995E-2,-4.483416677E-2,2.142753601E-1
7.928245224E0,5.985876918E-2,1.127719879E-3,1.327581406E-1
7.938407578E0,4.928737879E-3,8.515059948E-2,-6.535148621E-2
7.948569931E0,-7.665392756E-2,1.581441462E-1,-1.703271866E-1
7.958732285E0,-1.079242826E-1,2.011332512E-1,-1.414728165E-1
7.968894638E0,-7.740181684E-2,2.069873214E-1,-2.838230133E-2
7.979056992E0,-2.028888464E-2,1.767390966E-1,4.247951508E-2
7.989219346E0,2.359965444E-2,1.118804514E-1,5.071830750E-2
7.999381699E0,4.088231921E-2,3.788191080E-2,5.894565582E-2
8.009544053E0,4.217717052E-2,-1.995152235E-2,6.231975555E-2
8.019706406E0,3.075355291E-2,-3.860676289E-2,6.581020355E-2
8.029868760E0,-1.835227013E-4,-4.461970925E-2,3.151702881E-2
8.040031113E0,-1.084890962E-2,-2.537924051E-2,-2.080917358E-3
8.050193467E0,-9.762257338E-3,-1.591980457E-3,-4.390716553E-3
8.060386338E0,4.596054554E-3,1.295721531E-2,4.052925110E-2
8.070548691E0,-5.661487579E-3,2.286088467E-2,6.804752350E-2
8.080711045E0,-1.134777069E-2,1.571792364E-2,5.493068695E-2
8.090873398E0,-7.728517056E-3,3.741025925E-3,4.678535461E-2
8.101035752E0,-1.119446754E-2,-1.307815313E-2,4.584980011E-2
8.111198105E0,1.408323646E-2,-2.792635560E-2,-1.901435852E-2
8.121360459E0,5.133089423E-2,-9.655237198E-3,-3.491210938E-2
8.131522812E0,2.265197039E-2,3.418701887E-2,9.307861328E-2
8.141685166E0,4.038631916E-3,5.570152402E-2,2.500915527E-2
8.151847519E0,-8.695423603E-4,5.379068851E-2,-1.195468903E-1
8.162009873E0,3.185954690E-2,4.126700759E-2,-9.391117096E-2
8.172172226E0,4.241847992E-2,3.863486648E-2,-3.809356689E-2
8.182334580E0,2.490609884E-2,4.027920961E-2,-1.864624023E-2
8.192496933E0,-1.330971718E-3,3.378158808E-2,-1.844596863E-2
8.202659287E0,-2.690130472E-2,4.563480616E-2,-4.882717133E-2
8.212821640E0,-3.560152650E-2,5.477562547E-2,-5.263233185E-2
8.222983994E0,-1.892861724E-2,7.805523276E-2,5.012512207E-3
8.233146347E0,6.446629763E-3,9.606903791E-2,4.502868652E-2
8.243308701E0,1.934963465E-2,9.474748373E-2,5.359268188E-2
8.253471054E0,2.005809546E-2,9.563270211E-2,4.789066315E-2
8.263633408E0,2.545747161E-2,7.521516085E-2,4.471874237E-2
8.273795762E0,1.460844278E-2,5.703002214E-2,5.574607849E-2
8.283958115E0,1.407569647E-2,3.362804651E-2,5.248641968E-2
8.294120469E0,7.114410400E-3,2.386280894E-2,3.040599823E-2
8.304282822E0,-6.321191788E-3,1.167830825E-2,-1.498126984E-2
8.314445176E0,-2.426934242E-2,9.382605553E-3,-5.003261566E-2
8.324607529E0,-2.093952894E-2,2.819061279E-3,-3.012084961E-2
8.334769883E0,-1.570644975E-2,-1.045358181E-2,1.295948029E-2
8.344932236E0,-8.174002171E-3,-1.931971312E-2,3.166294098E-2
8.355094590E0,1.788884401E-3,-2.141895890E-2,2.883338928E-2
8.365256943E0,-1.204895973E-2,-1.689994335E-2,-1.177406311E-2
8.375449814E0,-9.254455566E-3,4.092931747E-3,-4.933166504E-2
8.385612168E0,-1.365643740E-2,1.326745749E-2,-7.911586761E-2
8.395774521E0,-1.577278972E-2,2.980738878E-2,-5.874729156E-2
8.405936875E0,-8.278876543E-3,2.261155844E-2,-1.982116699E-2
8.416099228E0,-5.681216717E-4,1.985272765E-2,6.625175476E-3
8.426261582E0,2.687573433E-3,2.594435215E-2,1.132774353E-2
8.436423935E0,8.688032627E-3,3.389322758E-2,-7.582664490E-3
8.446586289E0,7.530838251E-3,5.848017335E-2,-4.514598846E-2
8.456748642E0,-7.805168629E-3,6.183943152E-2,-8.444118500E-2
8.466910996E0,-2.534490824E-2,6.586617231E-2,-1.088733673E-1
8.477073349E0,-2.830177546E-2,6.124237180E-2,-7.855415344E-2
8.487235703E0,-9.781837463E-3,4.988849163E-2,-1.454353333E-3
8.497398056E0,6.155043840E-3,4.055425525E-2,7.433319092E-2
8.507560410E0,2.900159359E-2,4.459866881E-2,7.787704468E-2
8.517722763E0,1.410540938E-2,5.017071962E-2,1.053905487E-2
8.527885117E0,4.359751940E-3,7.472619414E-2,-3.662776947E-2
8.538047471E0,-5.869299173E-3,8.056709170E-2,2.006530762E-3
8.548209824E0,-5.081236362E-3,7.478255033E-2,6.585884094E-2
8.558402695E0,-2.821719646E-2,7.575166225E-2,5.762958527E-2
8.568565049E0,-5.698540807E-2,6.738615036E-2,-1.845235825E-1
8.578727402E0,-1.942437887E-2,5.922132730E-2,-3.180093765E-1
8.588889756E0,1.055307388E-1,1.849964261E-2,1.298265457E-1
8.599052109E0,1.577633619E-1,-1.136931777E-2,4.815244675E-1
8.609214463E0,1.452272832E-1,-1.493042707E-2,2.509584427E-1
8.619376816E0,5.635252595E-2,1.631385088E-2,-1.405162811E-1
8.629539170E0,-7.306709886E-2,3.921639919E-2,-3.858222961E-1
8.639701523E0,-9.531787038E-2,2.408054471E-2,-2.916994095E-1
8.649863877E0,-7.891541719E-2,-1.768821478E-2,-3.655147552E-2
8.660026230E0,-6.560415030E-3,-6.648588181E-2,1.836233139E-1
8.670188584E0,4.490241408E-2,-9.293079376E-2,2.443208694E-1
8.680350937E0,6.104573607E-2,-5.521538854E-2,1.057901382E-1
8.690513291E0,2.155035734E-3,2.759751678E-2,-8.922481537E-2
8.700675644E0,-6.945115328E-2,1.254579127E-1,-2.077541351E-1
8.710837998E0,-9.552448988E-2,1.878724396E-1,-1.520118713E-1
8.721000351E0,-6.433111429E-2,2.076486349E-1,-1.952457428E-2
8.731162705E0,-2.044817805E-2,1.812415123E-1,6.801319122E-2
8.741325058E0,1.791125536E-2,1.195015907E-1,6.658363342E-2
8.751487412E0,4.181820154E-2,4.612454772E-2,4.163360596E-2
8.761649765E0,2.108228207E-2,-3.337085247E-3,1.011848450E-2
8.771812119E0,-3.212064505E-3,-1.758417487E-2,2.411651611E-2
8.782004990E0,-9.691745043E-3,-2.778294683E-2,2.137279510E-2
8.792136826E0,3.567188978E-3,-6.099343300E-4,1.170539856E-2
8.802329697E0,1.676782966E-2,1.888865232E-2,2.351284027E-2
8.812492051E0,1.974168420E-2,4.058235884E-2,3.975105286E-2
8.822654404E0,-1.578986645E-3,4.557579756E-2,5.811405182E-2
8.832816758E0,-1.356509328E-2,2.916955948E-2,6.189441681E-2
8.842979111E0,-1.827704906E-2,1.773571968E-2,5.856418610E-2
8.853141465E0,-2.053555846E-2,1.327633858E-2,6.474781036E-2
8.863303818E0,8.278548717E-3,-1.010358334E-3,-9.726524353E-3
8.873466172E0,3.961187601E-2,2.502676845E-2,-7.056808472E-2
8.883628525E0,2.209541202E-2,4.831463099E-2,8.668136597E-2
8.893790879E0,-9.702175856E-3,5.217680335E-2,4.959201813E-2
8.903953232E0,-1.807472110E-2,4.471972585E-2,-1.118574142E-1
8.914115586E0,1.414597034E-2,6.221780181E-2,-1.404895782E-1
8.924277939E0,4.296135902E-2,4.986387491E-2,-9.078693390E-2
8.934440293E0,3.801694512E-2,5.701869726E-2,5.598068237E-4
8.944602646E0,1.689785719E-2,3.984853625E-2,1.230049133E-2
8.954765000E0,-1.515612006E-2,2.694007754E-2,-3.748321533E-2
8.964927353E0,-2.553451061E-2,3.070133924E-2,-4.376888275E-2
8.975089707E0,-1.748284698E-2,5.095002055E-2,6.683349609E-3
8.985252060E0,-5.494654179E-4,6.867986917E-2,3.022098541E-2
8.995414414E0,8.644133806E-3,8.620959520E-2,3.209686279E-2
9.005576767E0,1.497179270E-2,8.245465159E-2,4.339313507E-2
9.015739121E0,1.620510221E-2,8.116462827E-2,4.502296448E-2
9.025901474E0,1.991140842E-2,7.021400332E-2,6.084251404E-2
9.036063828E0,2.140232921E-2,5.415621400E-2,6.932258606E-2
9.046256699E0,1.143494248E-2,3.516837955E-2,4.692745209E-2
9.056419053E0,-4.893869162E-3,2.804169059E-2,-1.051425934E-2
9.066581406E0,-1.575633883E-2,1.407191157E-2,-4.329109192E-2
9.076743760E0,-1.245805621E-2,1.984331012E-2,-3.065299988E-2
9.086906113E0,-7.418215275E-3,1.629215479E-2,1.487255096E-2
9.097068467E0,6.894558668E-3,2.215275168E-2,4.536151886E-2
9.107230820E0,-1.671195030E-2,2.523073554E-2,2.099323273E-2
9.117393174E0,-1.858142018E-2,2.585843205E-2,-3.361606598E-2
9.127555527E0,-2.066397667E-2,2.683731914E-2,-5.663776398E-2
9.137717881E0,-3.004345298E-2,1.670923829E-2,-4.150104523E-2
9.147880234E0,-1.577776670E-2,1.428860426E-2,-1.003646851E-2
9.158042588E0,8.598268032E-4,1.895397902E-2,1.912117004E-3
9.168204941E0,1.049077511E-2,1.607310772E-2,6.574630737E-3
9.178367295E0,3.616750240E-3,2.694803476E-2,-5.291938782E-3
9.188529648E0,-1.250314713E-2,4.237782955E-2,-2.409648895E-2
9.198692002E0,-2.133753896E-2,4.570749402E-2,-2.366256714E-2
9.208854355E0,-1.361668110E-2,5.386871099E-2,-9.093284607E-3
9.219016709E0,-1.304554939E-2,6.440812349E-2,1.944637299E-2
9.229179062E0,-5.569159985E-4,7.708144188E-2,2.625274658E-2
9.239341416E0,7.108747959E-3,7.751107216E-2,6.907463074E-3
9.249503769E0,7.686585188E-3,7.330572605E-2,-2.153968811E-2
9.259666123E0,-9.302496910E-4,5.047771335E-2,-6.125831604E-2
9.269828476E0,-7.008522749E-3,2.843439579E-2,-6.724452972E-2
9.279990830E0,-1.308026910E-2,1.637142897E-2,-4.243087769E-2
9.290153183E0,-6.604194641E-5,1.395428181E-2,2.931404114E-2
9.300315537E0,1.702958345E-2,1.355543733E-2,9.733486176E-2
9.310508408E0,1.002770662E-2,4.056203365E-2,7.440567017E-2
9.320670762E0,1.377552748E-3,5.007910728E-2,-2.134799957E-2
9.330833115E0,-1.390627027E-2,7.421314716E-2,-7.515907288E-2
9.340995469E0,-3.708124161E-3,7.774293423E-2,-9.944915771E-3
9.351157822E0,-8.692651987E-3,6.725311279E-2,3.506183624E-2
9.361320176E0,-3.472319245E-2,4.733571410E-2,-6.040096283E-2
9.371482529E0,-4.899337888E-2,4.531878233E-2,-3.004722595E-1
9.381644883E0,1.132014394E-2,1.778191328E-2,-1.765470505E-1
9.391807236E0,9.784421325E-2,1.215994358E-3,4.170989990E-1
9.401969590E0,1.455804110E-1,-2.360880375E-3,3.950614929E-1
9.412131943E0,1.064141691E-1,2.289220691E-2,1.072492599E-1
9.422294297E0,-1.730081439E-2,4.181581736E-2,-3.127431870E-1
9.432456650E0,-1.195106804E-1,3.371933103E-2,-4.583902359E-1
9.442619004E0,-1.376735568E-1,5.452364683E-3,-2.074632645E-1
9.452781357E0,-4.749092460E-2,-4.653146863E-2,1.382246017E-1
9.462943711E0,4.434970021E-2,-8.015352488E-2,3.245744705E-1
9.473106064E0,8.173352480E-2,-6.272962689E-2,2.458610535E-1
9.483268418E0,4.007554054E-2,-2.332597971E-3,-1.540374756E-2
9.493430771E0,-3.282597661E-2,8.625021577E-2,-1.918010712E-1
9.503593125E0,-7.893249393E-2,1.608230472E-1,-1.764545441E-1
9.513755478E0,-7.914343476E-2,2.024854124E-1,-4.126834869E-2
9.523917832E0,-3.059074283E-2,1.932796836E-1,7.729911804E-2
9.534080185E0,1.265528798E-2,1.557230055E-1,9.923839569E-2
9.544273056E0,3.002813458E-2,8.948111534E-2,4.296588898E-2
9.554435410E0,1.960316300E-2,3.306642175E-2,-9.857177734E-3
9.564597763E0,9.922623634E-3,-4.279226065E-3,-2.863216400E-2
9.574760117E0,5.802780390E-3,-1.319554448E-2,-2.574634552E-2
9.584922471E0,1.893669367E-2,3.695487976E-3,-1.351737976E-2
9.595084824E0,3.177839518E-2,1.590886712E-2,2.221298218E-2
9.605247178E0,1.554059982E-2,4.235142469E-2,3.605365753E-2
9.615409531E0,-9.974241257E-4,3.053954244E-2,4.255867004E-2
9.625571885E0,-1.555031538E-2,1.438966393E-2,5.127334595E-2
9.635734238E0,-1.599815488E-2,-6.356358528E-3,5.500507355E-2
9.645896592E0,-2.824947238E-2,-1.280310750E-2,7.060146332E-2
9.656058945E0,-1.405555010E-2,-2.699622512E-2,7.173252106E-2
9.666221299E0,3.603723645E-2,-2.280229330E-2,-4.549217224E-2
9.676383652E0,4.340955615E-2,1.917439699E-2,-3.244876862E-2
9.686546006E0,1.611229777E-2,5.103316903E-2,1.050729752E-1
9.696708359E0,-5.835562944E-3,4.672944546E-2,4.167747498E-2
9.706870713E0,-7.090300322E-3,4.541987181E-2,-1.432638168E-1
9.717033066E0,2.722465992E-2,4.549103975E-2,-1.595487595E-1
9.727195420E0,1.976463199E-2,5.147007108E-2,-2.458763123E-2
9.737357773E0,9.869545698E-3,5.250081420E-2,2.758121490E-2
9.747520127E0,-1.307353377E-2,5.254146457E-2,-3.200149536E-2
9.757682480E0,-1.871040463E-2,4.979482293E-2,-7.863426208E-2
9.767875351E0,-1.074987650E-2,5.907824636E-2,-2.524375916E-2
9.778037705E0,3.770470619E-3,7.803514600E-2,1.048088074E-3
9.788200058E0,8.399039507E-3,8.977410197E-2,9.851455688E-4
9.798362412E0,1.261642575E-2,9.686422348E-2,2.449798584E-2
9.808524765E0,1.862621307E-2,9.933331609E-2,3.578758240E-2
9.818687119E0,1.962321997E-2,8.054307103E-2,3.972721100E-2
9.828849472E0,1.606124640E-2,6.154972315E-2,4.844284058E-2
9.839011826E0,1.033407450E-2,4.241308570E-2,5.938816071E-2
9.849174179E0,2.553641796E-3,2.771592140E-2,5.357265472E-2
9.859336533E0,-4.596024752E-3,1.311522722E-2,-1.739501953E-3
9.869498887E0,-2.314114571E-2,6.364673376E-3,-5.374050140E-2
9.879661240E0,-2.975049615E-2,9.828031063E-3,-4.098033905E-2
9.889823594E0,-1.771926880E-2,1.594531536E-2,1.402091980E-2
9.899985947E0,-8.503407240E-3,5.266219378E-3,5.385398865E-2
9.910148301E0,3.011375666E-3,8.593201637E-3,2.917289734E-2
9.920310654E0,-1.635515690E-2,4.575997591E-3,-2.344799042E-2
9.930473008E0,-1.432555914E-2,8.209228516E-3,-4.669475555E-2
9.940635361E0,-1.716646552E-2,2.444383502E-2,-3.889465332E-2
9.950797715E0,-8.138686419E-3,1.706314087E-2,-5.360603333E-3
9.960960068E0,5.799710751E-3,1.453876495E-2,1.108551025E-2
9.971122422E0,5.821198225E-3,9.189069271E-3,6.099700928E-3
9.981284775E0,1.374810934E-3,2.266493440E-2,-2.484321594E-2
9.991447129E0,-7.760882378E-3,3.389540315E-2,-4.580211639E-2
1.000160948E1,-2.163392305E-2,5.249550939E-2,-3.803062439E-2
1.001180235E1,-2.601954341E-2,8.309906721E-2,-3.051948547E-2
1.002196471E1,-1.620167494E-2,7.339605689E-2,-2.548694611E-2
1.003212706E1,-1.129814982E-2,7.104080915E-2,-2.052021027E-2
1.004228941E1,-4.161804914E-3,6.877112389E-2,-1.804542542E-2
1.005245177E1,2.644658089E-3,5.483576655E-2,-1.369476318E-3
1.006261412E1,2.234607935E-3,4.823079705E-2,3.869724274E-2
1.007277647E1,1.130846143E-2,4.836145043E-2,6.149005890E-2
1.008293883E1,2.052375674E-2,4.096165299E-2,5.792331696E-2
1.009310118E1,2.029752731E-2,4.500073195E-2,4.028511047E-2
1.010326354E1,1.313301921E-2,3.937274218E-2,4.027366638E-3
1.011342589E1,-5.599617958E-3,5.039334297E-2,-3.861713409E-2
1.012358824E1,-1.203551888E-2,3.316381574E-2,-4.989910126E-2
1.013375060E1,-8.746564388E-3,3.095498681E-2,-2.071571350E-2
1.014391295E1,3.667145967E-3,1.942765713E-2,5.519199371E-2
1.015407530E1,2.263358235E-2,1.678335667E-2,1.013393402E-1
1.016423766E1,2.268189192E-2,1.805454493E-2,3.096199036E-2
1.017440001E1,-4.834234715E-4,3.102970123E-2,-4.994392395E-2
1.018456236E1,-4.675269127E-3,5.639556050E-2,-4.673290253E-2
1.019472472E1,-1.943236589E-2,6.047251821E-2,1.531410217E-2
1.020488707E1,-4.844033718E-2,6.184855103E-2,1.482582092E-2
1.021504942E1,-7.838469744E-2,6.127369404E-2,-2.055540085E-1
1.022521178E1,-1.590690017E-2,5.313533545E-2,-3.342971802E-1
1.023537413E1,8.222302794E-2,1.440757513E-2,6.899356842E-2
1.024553648E1,1.081009507E-1,-1.556846499E-2,4.542255402E-1
1.025569884E1,1.349429786E-1,-2.326166630E-2,1.484432220E-1
1.026589171E1,4.625201225E-2,-7.230609655E-3,-1.423444748E-1
1.027605406E1,-7.837426662E-2,2.450078726E-3,-3.549718857E-1
1.028621642E1,-1.224486530E-1,-1.270627975E-2,-2.308177948E-1
1.029637877E1,-7.661455870E-2,-3.239351511E-2,2.326965332E-2
1.030654112E1,3.321588039E-3,-3.702968359E-2,2.306175232E-1
1.031670348E1,7.369348407E-2,-2.715235949E-2,2.550706863E-1
1.032686583E1,5.108374357E-2,1.654782891E-2,6.668281555E-2
1.033702818E1,-3.034153581E-2,9.496915340E-2,-1.349391937E-1
1.034719054E1,-8.710038662E-2,1.683363616E-1,-1.867551804E-1
1.035735289E1,-8.436366916E-2,2.114902735E-1,-7.736301422E-2
1.036751524E1,-4.539024830E-2,2.139734328E-1,2.985763550E-2
1.037767760E1,-2.566277981E-4,1.579694450E-1,6.672477722E-2
1.038783995E1,4.460299015E-2,8.354887366E-2,4.158210754E-2
1.039800230E1,4.185372591E-2,2.883633971E-2,2.403259277E-2
1.040816466E1,2.792266011E-2,-7.444202900E-3,2.568054199E-2
1.041832701E1,5.947798491E-3,-3.543087840E-2,3.458690643E-2
1.042848936E1,-4.985898733E-3,-4.301229119E-2,1.983070374E-2
1.043865172E1,8.383065462E-3,-2.486938238E-2,-1.725196838E-3
1.044881407E1,4.557251930E-3,5.071133375E-3,5.422592163E-3
1.045897643E1,2.326965332E-3,1.373469830E-2,2.890205383E-2
1.046916930E1,1.753926277E-3,8.402764797E-3,4.721069336E-2
1.047933165E1,-1.571655273E-3,-8.784115314E-3,5.104732513E-2
1.048949400E1,-9.597450495E-3,-1.413646340E-2,5.244922638E-2
1.049965636E1,-7.836282253E-3,-3.415361047E-2,5.148029327E-2
1.050981871E1,3.768444061E-3,-2.377358079E-2,-2.286720276E-2
1.051998106E1,2.990841866E-2,-4.334479570E-3,-6.939220428E-2
1.053014342E1,1.885023713E-2,3.117609024E-2,8.774185181E-2
1.054030577E1,-1.962602139E-3,5.150750279E-2,6.228923798E-2
1.055046812E1,-6.437569857E-3,5.284911394E-2,-1.042442322E-1
1.056063048E1,1.305431128E-2,5.998417735E-2,-1.259737015E-1
1.057079283E1,3.654688597E-2,5.575805902E-2,-6.954383850E-2
1.058095518E1,5.030438304E-2,7.484421134E-2,1.296997070E-4
1.059111754E1,9.767264128E-3,5.954250693E-2,-9.401321411E-3
1.060127989E1,-2.261653543E-2,5.791756511E-2,-6.596660614E-2
1.061144225E1,-3.338074684E-2,6.348586082E-2,-7.656097412E-2
1.062160460E1,-1.865297556E-2,8.822351694E-2,-2.797889709E-2
1.063176695E1,1.182851195E-2,1.032992005E-1,3.148651123E-2
1.064192931E1,2.059346437E-2,1.109462082E-1,4.270267487E-2
1.065209166E1,1.719605923E-2,1.040875316E-1,4.436588287E-2
1.066225401E1,1.817828417E-2,8.078718185E-2,4.358959198E-2
1.067241637E1,1.928320527E-2,6.238991022E-2,5.228614807E-2
1.068257872E1,1.609820127E-2,4.124560952E-2,6.090164185E-2
1.069277159E1,4.064232111E-3,3.152599931E-2,4.103660583E-2
1.070293394E1,-2.498537302E-3,5.259692669E-3,-6.837844849E-3
1.071309630E1,-1.584723592E-2,-6.250768900E-3,-5.854701996E-2
1.072325865E1,-1.742947102E-2,-3.674924374E-4,-4.799270630E-2
1.073342101E1,-1.015031338E-2,-3.698915243E-3,1.411437988E-4
1.074358336E1,-5.688279867E-3,-2.314984798E-3,4.976272583E-2
1.075374571E1,-1.538312435E-2,-1.335576177E-2,4.183864594E-2
1.076390807E1,-5.826711655E-3,-8.207529783E-3,9.546279907E-4
1.077407042E1,-2.472886443E-2,-3.096669912E-3,-5.804920197E-2
1.078423277E1,-2.464100718E-2,-7.088780403E-3,-8.776092529E-2
1.079439513E1,-1.057410240E-2,1.502364874E-3,-7.206726074E-2
1.080455748E1,-6.132394075E-3,3.196954727E-3,-2.825546265E-2
1.081471983E1,1.102834940E-3,1.651203632E-2,5.626678467E-4
1.082488219E1,3.876715899E-3,1.251292229E-2,-6.479263306E-3
1.083504454E1,-2.552717924E-3,3.183767200E-2,-2.513694763E-2
1.084520689E1,5.137026310E-4,4.618984461E-2,-1.987934113E-2
1.085536925E1,1.085281372E-3,6.521394849E-2,1.880645752E-3
1.086553160E1,6.329268217E-3,7.690793276E-2,4.255294800E-3
1.087569396E1,9.233593941E-3,7.422068715E-2,-9.906768799E-3
1.088585631E1,1.221108437E-2,6.241595745E-2,-4.280281067E-2
1.089601866E1,-5.986392498E-3,6.039214134E-2,-6.087875366E-2
1.090621153E1,-1.410216093E-2,3.967973590E-2,-3.613567352E-2
1.091637389E1,-1.707336307E-2,3.593730927E-2,2.609062195E-2
1.092653624E1,-3.211468458E-3,1.761996746E-2,8.488178253E-2
1.093669859E1,2.438342571E-2,3.903305531E-2,9.774875641E-2
1.094686095E1,2.092406154E-2,4.528746009E-2,5.367279053E-2
1.095702330E1,1.275834441E-2,5.618903041E-2,-6.093978882E-3
1.096718565E1,8.907616138E-3,7.462227345E-2,8.504867554E-3
1.097734801E1,-1.956859231E-2,6.931671500E-2,5.806541443E-2
1.098751036E1,-3.110721707E-2,5.662903190E-2,2.163124084E-2
1.099767272E1,-5.769100785E-2,5.404537916E-2,-2.294473648E-1
1.100783507E1,-1.754266024E-2,3.018087149E-2,-3.455400467E-1
1.101799742E1,8.640110493E-2,-2.458542585E-3,1.381340027E-1
1.102815978E1,1.559517384E-1,-2.444699407E-2,4.424276352E-1
1.103832213E1,1.293858290E-1,-1.315385103E-2,2.622814178E-1
1.104848448E1,1.632857323E-2,1.128658652E-2,-1.272277832E-1
1.105864684E1,-9.621098638E-2,4.640287161E-2,-4.414100647E-1
1.106880919E1,-1.339589953E-1,3.193295002E-2,-3.580961227E-1
1.107897154E1,-9.037077427E-2,-1.126885414E-2,-4.514598846E-2
1.108913390E1,3.513187170E-3,-6.381809711E-2,2.081308365E-1
1.109929625E1,5.940327048E-2,-7.533508539E-2,2.588911057E-1
1.110945860E1,6.540846825E-2,-2.783647180E-2,8.467388153E-2
1.111962096E1,-1.690059900E-3,4.581096768E-2,-1.383161545E-1
1.112981383E1,-6.759545207E-2,1.185566485E-1,-1.969642639E-1
1.113997618E1,-8.815738559E-2,1.752075553E-1,-1.037578583E-1
1.115013854E1,-5.792713165E-2,1.932431161E-1,4.195880890E-2
1.116030089E1,-4.754990339E-3,1.713595688E-1,9.529590607E-2
1.117046324E1,3.133174777E-2,1.232486069E-1,6.982707977E-2
1.118062560E1,3.886744380E-2,6.117483974E-2,2.837276459E-2
1.119078795E1,2.542558312E-2,8.908480406E-3,6.587982178E-3
1.120095030E1,1.042321324E-2,-1.019835472E-2,4.126548767E-3
1.121111266E1,6.014764309E-3,3.525227308E-3,1.118755341E-2
1.122127501E1,1.168814301E-2,1.661738753E-2,2.296352386E-2
1.123143736E1,1.257178187E-2,3.653851151E-2,2.975940704E-2
1.124159972E1,5.943238735E-3,4.927524924E-2,3.874683380E-2
1.125176207E1,3.429770470E-3,3.848314285E-2,3.812503815E-2
1.126192442E1,-1.374095678E-2,1.850703359E-2,4.458808899E-2
1.127208678E1,-1.894521713E-2,1.307561994E-2,5.091476440E-2
1.128224913E1,-2.860042453E-2,-8.865445852E-3,5.953598022E-2
1.129241148E1,4.878580570E-3,-7.330894470E-3,2.064990997E-2
1.130257384E1,4.559081793E-2,7.888138294E-3,-5.968475342E-2
1.131273619E1,2.104970813E-2,1.097396016E-2,7.619953156E-2
1.132289855E1,-8.699417114E-3,3.025746346E-2,8.416461945E-2
1.133306090E1,-1.758918166E-2,2.805167437E-2,-8.031082153E-2
1.134322325E1,-2.085924149E-3,4.358455539E-2,-1.496677399E-1
1.135338561E1,2.221104503E-2,4.589846730E-2,-1.164321899E-1
1.136354796E1,2.460873127E-2,4.643025994E-2,-3.638458252E-2
1.137371031E1,8.137166500E-3,3.697305918E-2,4.291534424E-3
1.138387267E1,-1.254546642E-2,3.426027298E-2,-4.780769348E-2
1.139403502E1,-3.277879953E-2,3.850591183E-2,-5.635929108E-2
1.140419737E1,-1.773446798E-2,5.709329247E-2,-5.704879761E-3
1.141435973E1,3.705382347E-3,7.316881418E-2,4.633617401E-2
1.142455260E1,1.745778322E-2,8.880892396E-2,4.308032990E-2
1.143471495E1,1.420125365E-2,1.065934002E-1,3.521156311E-2
1.144487730E1,5.822926760E-3,9.110024571E-2,2.985477448E-2
1.145503966E1,1.159146428E-2,7.578209043E-2,4.104518890E-2
1.146520201E1,1.748606563E-2,6.036329269E-2,6.866645813E-2
1.147536436E1,7.080405951E-3,4.437583685E-2,6.276702881E-2
1.148552672E1,-2.401530743E-3,1.384273171E-2,7.349014282E-3
1.149568907E1,-4.067093134E-3,1.238638163E-2,-5.879402161E-2
1.150585143E1,-1.053512096E-3,1.403754950E-2,-3.637886047E-2
1.151601378E1,-9.946227074E-4,1.610979438E-2,2.572917938E-2
1.152617613E1,-5.960941315E-3,1.094976068E-2,4.890537262E-2
1.153633849E1,-2.024105191E-2,3.043293953E-3,3.861522675E-2
1.154650084E1,-3.185486794E-2,1.877760887E-2,-1.404666901E-2
1.155666319E1,-2.692902088E-2,2.996963263E-2,-4.448223114E-2
1.156685606E1,-1.526406407E-2,2.040505409E-2,-3.902053833E-2
1.157701842E1,-3.851056099E-3,2.084106207E-2,-2.427101135E-2
1.158715025E1,5.287855864E-3,2.119600773E-2,6.811141968E-3
1.159731261E1,7.686644793E-3,9.426862001E-3,-3.862380981E-4
1.160747496E1,1.274561882E-2,1.861196756E-2,-1.219081879E-2
1.161763731E1,-5.742281675E-3,2.759817243E-2,-2.610969543E-2
1.162783018E1,-4.448294640E-4,4.128462076E-2,-2.563095093E-2
1.163799254E1,-9.546607733E-3,4.552197456E-2,-1.097965240E-2
1.164815489E1,-1.137581468E-2,6.160205603E-2,8.071899414E-3
1.165831725E1,9.606480598E-4,6.312054396E-2,1.269531250E-2
1.166847960E1,6.103694439E-3,6.448221207E-2,-1.770973206E-3
1.167864195E1,-4.085600376E-4,6.340861320E-2,-2.539062500E-2
1.168880431E1,-1.930058002E-3,4.376500845E-2,-5.327415466E-2
1.169896666E1,-1.040309668E-2,4.373019934E-2,-6.180286407E-2
1.170912901E1,-1.152518392E-2,3.920251131E-2,-2.760982513E-2
1.171929137E1,1.422375441E-3,3.010857105E-2,4.135704041E-2
1.172945372E1,2.553722262E-2,3.961056471E-2,1.068391800E-1
1.173961607E1,2.524548769E-2,6.020122766E-2,7.421016693E-2
1.174977843E1,6.528645754E-3,4.937803745E-2,-5.006790161E-3
1.175994078E1,-4.640966654E-3,7.002890110E-2,-4.023742676E-2
1.177010314E1,-1.624295115E-2,6.940793991E-2,2.194499969E-2
1.178026549E1,-2.344197035E-2,6.643438339E-2,1.904296875E-2
1.179042784E1,-4.406720400E-2,5.662792921E-2,-1.494121552E-1
1.180059020E1,-2.199271321E-2,4.411023855E-2,-3.168592453E-1
1.181075255E1,4.703888297E-2,1.325982809E-2,-3.432655334E-2
1.182094542E1,8.703956008E-2,-1.490381360E-2,5.091543198E-1
1.183110777E1,1.381700039E-1,2.869516611E-3,3.228139877E-1
1.184127013E1,5.933564901E-2,2.612000704E-2,1.259040833E-2
1.185143248E1,-5.729994178E-2,5.132913589E-2,-3.562202454E-1
1.186159483E1,-1.262952685E-1,4.050087929E-2,-3.996677399E-1
1.187175719E1,-8.973327279E-2,-1.003324986E-3,-1.332998276E-1
1.188191954E1,-8.553475142E-3,-4.841303825E-2,1.827974319E-1
1.189208189E1,6.258511543E-2,-5.890551209E-2,2.975006104E-1
1.190224425E1,5.755576491E-2,-4.855746031E-2,1.531114578E-1
1.191240660E1,2.027904987E-2,1.856645942E-2,-8.779239655E-2
1.192256896E1,-5.622336268E-2,1.032060385E-1,-1.828632355E-1
1.193273131E1,-7.034441829E-2,1.664247811E-1,-1.112260818E-1
1.194289366E1,-5.246576667E-2,1.911691725E-1,1.319122314E-2
1.195305602E1,-1.849350333E-2,1.738078296E-1,6.923770905E-2
1.196321837E1,1.310262084E-2,1.232096851E-1,6.065368652E-2
1.197338072E1,2.113428712E-2,6.811556220E-2,1.683044434E-2
1.198354308E1,1.072466373E-2,8.521497250E-3,-1.198387146E-2
1.199370543E1,1.072970033E-2,-1.296862960E-2,-1.663970947E-2
1.200386778E1,-3.566443920E-4,-2.522742748E-2,9.617805481E-3
1.201403014E1,8.040428162E-3,4.882216454E-3,1.654052734E-2
1.202419249E1,1.608210802E-2,2.759274840E-2,1.862239838E-2
1.203435484E1,2.316623926E-3,4.324999452E-2,3.720092773E-2
1.204451720E1,-7.338434458E-3,3.758284450E-2,5.062389374E-2
1.205467955E1,-1.260167360E-2,2.287259698E-2,5.903625488E-2
1.206484190E1,-2.026417851E-2,3.690361977E-3,5.785846710E-2
1.207503478E1,-2.056583762E-2,-1.568585634E-2,7.339763641E-2
1.208519713E1,8.716881275E-4,-2.824664116E-2,7.444190979E-2
1.209535948E1,3.702560067E-2,-2.018117905E-2,-4.982089996E-2
1.210552184E1,4.677027464E-2,3.723409772E-2,2.221965790E-2
1.211568419E1,1.941359043E-2,4.156851768E-2,9.964561462E-2
1.212584654E1,-1.618579030E-2,5.298241973E-2,-2.048397064E-2
1.213600890E1,-9.925723076E-3,5.571335554E-2,-1.571445465E-1
1.214617125E1,1.711761951E-2,6.460317969E-2,-1.379461288E-1
1.215633360E1,2.877023816E-2,5.540159345E-2,-2.702331543E-2
1.216649596E1,1.882508397E-2,3.886768222E-2,2.989864349E-2
1.217665831E1,-1.387727261E-2,3.091183305E-2,-3.216934204E-2
1.218682066E1,-2.925574780E-2,3.222933412E-2,-9.070014954E-2
1.219698302E1,-2.391627431E-2,6.453266740E-2,-4.194545746E-2
1.220714537E1,-3.736913204E-4,8.243155479E-2,2.711772919E-2
1.221730772E1,8.650690317E-3,9.777104855E-2,3.823375702E-2
1.222747008E1,1.025694609E-2,1.009535193E-1,2.325344086E-2
1.223763243E1,1.846185327E-2,9.012392163E-2,3.453063965E-2
1.224779478E1,1.908430457E-2,7.715702057E-2,5.742073059E-2
1.225795714E1,1.280722022E-2,5.686324835E-2,6.338596344E-2
1.226811949E1,9.310066700E-3,3.394809365E-2,6.690406799E-2
1.227828185E1,8.761942387E-3,2.239441872E-2,2.783870697E-2
1.228844420E1,-5.404263735E-3,1.570513844E-2,-4.122066498E-2
1.229860655E1,-1.917737722E-2,2.151423693E-2,-6.889820099E-2
1.230876891E1,-1.924821734E-2,2.093794942E-2,-1.575469971E-2
1.231893126E1,-1.029792428E-2,1.330080628E-2,4.824352264E-2
1.232909361E1,-2.258053422E-2,-4.120916128E-3,5.907917023E-2
1.233928648E1,-2.031362057E-2,-1.017719507E-2,1.072692871E-2
1.234944884E1,-2.054056525E-2,-4.273623228E-3,-2.733993530E-2
1.235961119E1,-1.158353686E-2,2.003610134E-3,-4.816627502E-2
1.236977355E1,-7.806211710E-3,1.367306709E-2,-4.041671753E-2
1.237993590E1,-3.822892904E-3,1.831993461E-2,-2.101230621E-2
1.239009825E1,3.958344460E-4,1.096722484E-2,-1.125621796E-2
1.240026061E1,7.285892963E-3,3.195646405E-2,-1.353454590E-2
1.241042296E1,2.516210079E-3,3.114071488E-2,-2.759838104E-2
1.242058531E1,-1.412206888E-2,3.748789430E-2,-2.010536194E-2
1.243074767E1,-1.638743281E-2,3.924205899E-2,3.798484802E-3
1.244091002E1,-1.869198680E-2,5.757156014E-2,8.332252502E-3
1.245107237E1,-1.607125998E-2,6.358763576E-2,1.514339447E-2
1.246123473E1,-1.098036766E-2,6.240242720E-2,-1.830387115E-2
1.247139708E1,3.594011068E-3,6.363955140E-2,-5.591011047E-2
1.248155943E1,-9.678304195E-4,5.102995038E-2,-6.451034546E-2
1.249172179E1,-2.983182669E-3,3.170925379E-2,-2.330780029E-2
1.250188414E1,-2.342650294E-2,1.503807306E-2,1.717376709E-2
1.251204649E1,-6.894767284E-4,5.403846502E-3,4.990482330E-2
1.252220885E1,2.134072781E-2,2.601313591E-2,7.739543915E-2
1.253237120E1,1.668736339E-2,5.050134659E-2,4.766368866E-2
1.254253355E1,2.167683840E-2,5.794247985E-2,4.302978516E-3
1.255272643E1,9.645611048E-3,7.509511709E-2,3.027057648E-2
1.256288878E1,-5.329221487E-3,6.375715137E-2,6.506729126E-2
1.257305113E1,-2.731120586E-2,7.132098079E-2,2.125740051E-2
1.258321349E1,-5.032339692E-2,5.800300837E-2,-2.086095810E-1
1.259337584E1,-2.493590117E-3,4.700112343E-2,-3.349962234E-1
1.260353819E1,8.620041609E-2,1.059624553E-2,7.774257660E-2
1.261370055E1,1.238071918E-1,-1.716682315E-2,3.920221329E-1
1.262386290E1,1.528703272E-1,-2.230474353E-2,1.464748383E-1
1.263402525E1,4.712522030E-2,9.845495224E-4,-1.065549850E-1
1.264418761E1,-7.044482231E-2,8.017301559E-3,-2.960948944E-1
1.265434996E1,-1.191908121E-1,-5.584955215E-3,-2.179555893E-1
1.266451231E1,-8.491283655E-2,-3.373590112E-2,-4.208564758E-3
1.267467467E1,7.444024086E-3,-4.612222314E-2,1.989707947E-1
1.268483702E1,5.186656117E-2,-2.434551716E-2,2.120981216E-1
1.269499938E1,4.834273458E-2,1.497709751E-2,4.804039001E-2
1.270516173E1,-2.840405703E-2,9.397083521E-2,-1.390638351E-1
1.271532408E1,-8.294570446E-2,1.632505953E-1,-1.814203262E-1
1.272548644E1,-7.091674209E-2,1.998059154E-1,-7.213115692E-2
1.273564879E1,-2.992868423E-2,1.859605312E-1,5.394554138E-2
1.274581114E1,1.017704606E-2,1.394993663E-1,7.147979736E-2
1.275597350E1,4.050210118E-2,7.447093725E-2,2.263355255E-2
1.276613585E1,3.517153859E-2,2.660337090E-2,-6.398200989E-3
1.277632872E1,2.076783776E-2,-1.904988289E-2,1.472663879E-2
1.278649107E1,7.711887360E-3,-3.701719642E-2,4.505538940E-2
1.279665343E1,-1.404225826E-3,-3.480887413E-2,5.132579803E-2
1.280681578E1,4.644840956E-3,-1.695537567E-2,3.155708313E-2
1.281697814E1,-6.115436554E-3,1.481056213E-2,2.401447296E-2
1.282714049E1,-8.016645908E-3,3.461402655E-2,2.834224701E-2
1.283730284E1,-3.559470177E-3,3.318989277E-2,3.490066528E-2
1.284746520E1,-4.506558180E-3,1.295971870E-2,4.367733002E-2
1.285762755E1,-7.985800505E-3,7.099866867E-3,4.524517059E-2
1.286778990E1,-1.584091783E-2,-2.039057016E-2,2.783775330E-2
1.287795226E1,2.407959104E-2,-1.710176468E-2,-5.324077606E-2
1.288811461E1,4.960504174E-2,2.414584160E-4,-4.727077484E-2
1.289827696E1,2.347752452E-2,2.424556017E-2,1.022253036E-1
1.290843932E1,2.546161413E-3,3.097945452E-2,4.112052917E-2
1.291860167E1,-1.182666421E-2,2.871599793E-2,-1.320886612E-1
1.292876402E1,9.548217058E-3,4.408985376E-2,-1.084814072E-1
1.293892638E1,2.523535490E-2,5.021736026E-2,-3.354454041E-2
1.294908873E1,2.481415868E-2,5.569460988E-2,-1.415157318E-2
1.295928160E1,-1.047253609E-3,4.840135574E-2,-3.528404236E-2
1.296944396E1,-2.656653523E-2,3.844112158E-2,-6.779479980E-2
1.297960631E1,-2.834913135E-2,5.727925897E-2,-5.246639252E-2
1.298973814E1,-4.555732012E-3,8.085519075E-2,-6.701469421E-3
1.299993102E1,1.359155774E-2,8.995616436E-2,4.297924042E-2
1.301009337E1,1.461800933E-2,9.618782997E-2,6.341552734E-2
1.302025572E1,3.678330779E-2,9.254601598E-2,4.805660248E-2
1.303041808E1,3.242534399E-2,8.650296926E-2,3.302288055E-2
1.304058043E1,1.404467225E-2,6.384149194E-2,4.665279388E-2
1.305074278E1,1.291695237E-2,5.046200752E-2,4.581356049E-2
1.306090514E1,-6.824284792E-3,3.660494089E-2,4.029464722E-2
1.307106749E1,-6.663888693E-3,8.252948523E-3,-5.272865295E-3
1.308122984E1,-8.586168289E-3,4.047185183E-3,-5.704784393E-2
1.309139220E1,-8.289396763E-3,-4.402756691E-3,-3.943729401E-2
1.310155455E1,-8.313238621E-3,-1.017943025E-2,6.200790405E-3
1.311171690E1,-3.696501255E-3,-1.862299442E-2,4.394149780E-2
1.312187926E1,-1.553156972E-2,-8.744955063E-3,3.143692017E-2
1.313204161E1,-5.889058113E-3,6.986856461E-4,-2.580165863E-2
1.314220396E1,-1.557937264E-2,8.021831512E-3,-6.311321259E-2
1.315236632E1,-1.590359211E-2,8.730441332E-3,-6.908512115E-2
1.316252867E1,-1.383444667E-2,5.290836096E-3,-4.664134979E-2
1.317269102E1,-2.022802830E-3,1.113417745E-2,-5.584716797E-3
1.318285338E1,-6.485462189E-3,1.642766595E-2,2.290248871E-2
1.319301573E1,-9.866058826E-4,2.338644862E-2,1.551055908E-2
1.320317809E1,-2.295553684E-3,4.414376616E-2,-2.481365204E-2
1.321334044E1,-8.415967226E-3,7.196649909E-2,-5.971813202E-2
1.322350279E1,-1.447170973E-2,7.385170460E-2,-9.406280518E-2
1.323366515E1,-2.039599419E-2,5.520361662E-2,-8.050251007E-2
1.324382750E1,-2.591857314E-2,4.432794452E-2,-1.996231079E-2
1.325398985E1,-1.466742158E-2,3.805959225E-2,4.667854309E-2
1.326415221E1,3.475248814E-3,3.822818398E-2,8.386039734E-2
1.327434508E1,2.153059840E-2,4.210495949E-2,4.237270355E-2
1.328450743E1,1.356762648E-2,5.294397473E-2,-3.139495850E-2
1.329466978E1,-1.733452082E-3,6.879007816E-2,-1.164150238E-2
1.330483214E1,-1.312071085E-2,8.697125316E-2,6.190395355E-2
1.331499449E1,-2.233946323E-2,8.570286632E-2,5.849933624E-2
1.332515685E1,-5.189228058E-2,7.015830278E-2,-1.318120956E-1
1.333531920E1,-3.357076645E-2,6.604313850E-2,-3.631896973E-1
1.334548155E1,6.924214959E-2,2.937307954E-2,4.307937622E-2
1.335564391E1,1.629111171E-1,-2.758681774E-3,4.507160187E-1
1.336580626E1,1.706611514E-1,-2.244773507E-2,3.436317444E-1
1.337596861E1,7.064568996E-2,4.274666309E-3,-2.356529236E-2
1.338613097E1,-7.066431642E-2,2.869600058E-2,-3.677663803E-1
1.339629332E1,-1.290478408E-1,3.115993738E-2,-3.635158539E-1
1.340645567E1,-9.880706668E-2,4.646658897E-3,-8.575630188E-2
1.341661803E1,-1.604685187E-2,-5.683723092E-2,1.730661392E-1
1.342678038E1,5.212435126E-2,-6.694534421E-2,2.504873276E-1
1.343694273E1,6.785038114E-2,-3.439441323E-2,1.071634293E-1
1.344710509E1,-3.602683544E-3,1.752614975E-2,-1.090688705E-1
1.345726744E1,-6.632837653E-2,9.695014358E-2,-2.131118774E-1
1.346742980E1,-9.555074573E-2,1.791576445E-1,-1.360521317E-1
1.347762267E1,-7.432958484E-2,1.873255372E-1,7.629394531E-4
1.348778502E1,-1.363858581E-2,1.630541980E-1,8.086013794E-2
1.349794737E1,1.327085495E-2,1.196477413E-1,6.505489349E-2
1.350810973E1,2.371072769E-2,4.551222920E-2,2.366542816E-2
1.351827208E1,8.244693279E-3,2.679467201E-3,-5.167007446E-3
1.352843443E1,3.041118383E-3,-2.600011230E-2,6.757736206E-3
1.353859679E1,3.568828106E-3,-2.202957869E-2,1.383686066E-2
1.354875914E1,9.547978640E-3,2.532154322E-3,6.709098816E-3
1.355892149E1,2.498170733E-2,2.420899272E-2,2.329349518E-2
1.356908385E1,1.601734757E-2,5.293372273E-2,2.772235870E-2
1.357924620E1,4.241168499E-3,5.083006620E-2,3.918075562E-2
1.358940855E1,-8.020490408E-3,3.945797682E-2,5.038261414E-2
1.359957091E1,-2.743324637E-2,2.845934033E-2,4.718399048E-2
1.360973326E1,-2.032807469E-2,1.036047935E-3,4.170989990E-2
1.361989562E1,-8.248806000E-3,9.223699570E-3,2.204418182E-2
1.363005797E1,3.740695119E-2,2.163669467E-2,-7.735633850E-2
1.364022032E1,2.486687899E-2,3.131744266E-2,6.590843201E-2
1.365038268E1,1.987367868E-3,4.532074928E-2,9.534835815E-2
1.366054503E1,-1.433208585E-2,5.202019215E-2,-5.044746399E-2
1.367070738E1,-8.153676987E-3,5.949747562E-2,-1.343841553E-1
1.368086974E1,2.590805292E-2,5.621129274E-2,-1.084527969E-1
1.369103209E1,3.093537688E-2,5.614054203E-2,-5.933856964E-2
1.370122496E1,1.448577642E-2,4.418286681E-2,5.295753479E-3
1.371138731E1,-1.071333885E-2,3.178235888E-2,-3.028964996E-2
1.372154967E1,-3.762313724E-2,2.415341139E-2,-4.620075226E-2
1.373171202E1,-2.923455834E-2,3.575956821E-2,-9.902954102E-3
1.374187438E1,-7.120430470E-3,6.851354241E-2,3.039646149E-2
1.375203673E1,2.528488636E-3,9.123122692E-2,4.166793823E-2
1.376219908E1,9.329080582E-3,1.017115712E-1,3.620052338E-2
1.377236144E1,1.303607225E-2,9.799444675E-2,2.848625183E-2
1.378252379E1,1.175227761E-2,7.784274220E-2,3.978347778E-2
1.379268614E1,8.054465055E-3,6.718817353E-2,6.268310547E-2
1.380284850E1,9.502887726E-3,3.472912312E-2,6.153583527E-2
1.381301085E1,-1.699924469E-4,2.106606960E-2,1.796245575E-2
1.382318012E1,2.907097340E-3,7.578551769E-3,-4.373073578E-2
1.383334247E1,-3.525078297E-3,6.374448538E-3,-4.287528992E-2
1.384350482E1,1.088643074E-2,1.285278797E-2,4.558563232E-4
1.385366718E1,8.206903934E-3,1.694229245E-2,3.824329376E-2
1.386382953E1,5.579560995E-3,2.310836315E-2,2.105998993E-2
1.387399188E1,-1.131767035E-2,2.417445183E-2,-1.944541931E-2
1.388415424E1,-9.068876505E-3,1.842105389E-2,-5.691242218E-2
1.389431659E1,-1.428288221E-2,2.786988020E-2,-4.886913300E-2
1.390447894E1,-1.713547111E-2,1.632046700E-2,-1.500511169E-2
1.391467181E1,1.729220152E-3,4.916071892E-3,1.589775085E-2
1.392483417E1,8.954316378E-3,2.623993158E-2,1.797199249E-2
1.393499652E1,9.381562471E-3,3.487747908E-2,1.067638397E-2
1.394515888E1,5.170196295E-3,3.614354134E-2,5.849838257E-3
1.395532123E1,-1.593351364E-3,5.169832706E-2,5.777359009E-3
1.396545306E1,-1.296886802E-2,5.283492804E-2,3.336906433E-3
1.397564594E1,-1.705908775E-2,6.139302254E-2,-3.692817688E-2
1.398580829E1,-1.135361195E-2,6.527137756E-2,-8.123970032E-2
1.399597064E1,-1.266190410E-2,3.862851858E-2,-8.931541443E-2
1.400613300E1,-1.153138280E-2,2.713257074E-2,-4.996109009E-2
1.401629535E1,3.497987986E-3,1.838624477E-2,3.365325928E-2
1.402645770E1,2.736788988E-2,3.276807070E-2,1.016139984E-1
1.403662006E1,3.555208445E-3,4.617154598E-2,6.435871124E-2
1.404678241E1,-2.837717533E-3,5.442017317E-2,-1.697731018E-2
1.405694476E1,-9.313702583E-3,8.915829659E-2,-2.598857880E-2
1.406710712E1,-1.412609220E-2,7.406461239E-2,3.816032410E-2
1.407726947E1,-3.576806188E-2,6.849187613E-2,1.371097565E-2
1.408743182E1,-5.583333969E-2,6.111705303E-2,-2.230787277E-1
1.409759418E1,-1.219615340E-2,4.147535563E-2,-2.994623184E-1
1.410775653E1,7.457157969E-2,5.487024784E-3,1.623315811E-1
1.411791888E1,1.178818643E-1,-3.181695938E-3,5.225038528E-1
1.412808124E1,1.528826952E-1,1.215088367E-2,2.512359619E-1
1.413824359E1,5.010139942E-2,4.351967573E-2,-8.854770660E-2
1.414840594E1,-8.547791839E-2,6.165659428E-2,-4.366807938E-1
1.415856830E1,-1.349973381E-1,4.936659336E-2,-3.677997589E-1
1.416876117E1,-7.914459705E-2,9.599924088E-4,-5.231761932E-2
1.417892352E1,9.847342968E-3,-5.229955912E-2,2.388114929E-1
1.418908588E1,6.746950746E-2,-6.478679180E-2,2.794122696E-1
1.419924823E1,5.556970835E-2,-3.927382827E-2,8.340644836E-2
1.420941058E1,-8.401185274E-3,2.270841599E-2,-1.302099228E-1
1.421957294E1,-6.434482336E-2,9.828174114E-2,-1.726608276E-1
1.422973529E1,-6.704831123E-2,1.620167494E-1,-7.764053345E-2
1.423989764E1,-4.222896695E-2,1.772850156E-1,3.205680847E-2
1.425006000E1,-8.161842823E-3,1.474339366E-1,7.129573822E-2
1.426022235E1,2.822628617E-2,9.603703022E-2,5.563545227E-2
1.427038471E1,2.933651209E-2,3.266602755E-2,4.920959473E-3
1.428054706E1,1.456892490E-2,-4.306584597E-3,-1.412296295E-2
1.429070941E1,-1.755684614E-3,-1.031392813E-2,-1.858329773E-2
1.430087176E1,2.077260613E-2,-9.416103363E-3,-6.450653076E-3
1.431103412E1,1.946091652E-2,1.519161463E-2,-6.310462952E-3
1.432119647E1,2.020838857E-2,3.508251905E-2,-1.458168030E-3
1.433135883E1,1.301631331E-2,4.807215929E-2,2.691936493E-2
1.434152118E1,-6.600350142E-3,3.283688426E-2,6.411647797E-2
1.435168353E1,-1.443547010E-2,1.543036103E-2,6.522083282E-2
1.436184589E1,-3.173577785E-2,2.612948418E-3,7.111358643E-2
1.437200824E1,-2.231040597E-2,-8.185237646E-3,8.403110504E-2
1.438217059E1,-6.356835365E-4,-2.183231711E-2,2.577304840E-2
1.439233295E1,2.879509330E-2,9.332865477E-3,-8.792304993E-2
1.440249530E1,2.153837681E-2,4.003018141E-2,4.377841949E-2
1.441268817E1,3.751754761E-3,5.849966407E-2,1.113309860E-1
1.442285053E1,-2.426487207E-2,5.075323582E-2,-4.200649261E-2
1.443301288E1,-1.244306564E-3,5.333170295E-2,-1.593513489E-1
1.444317523E1,2.573865652E-2,5.014899373E-2,-9.979724884E-2
1.445333759E1,1.582819223E-2,4.293802381E-2,1.278877258E-2
1.446349994E1,-3.076374531E-3,4.470929503E-2,2.902984619E-3
1.447366229E1,-1.613441110E-2,3.142699599E-2,-5.623435974E-2
1.448382465E1,-3.877490759E-2,4.425683618E-2,-5.995464325E-2
1.449398700E1,-1.452144980E-2,6.442427635E-2,-9.440422058E-3
1.450414935E1,1.645514369E-2,8.932673931E-2,7.074356079E-3
1.451431171E1,1.598969102E-2,9.508726001E-2,1.865863800E-2
1.452447406E1,1.266130805E-2,9.606000781E-2,3.713607788E-2
1.453463641E1,1.585277915E-2,9.248408675E-2,5.758762360E-2
1.454479877E1,2.142065763E-2,7.688337564E-2,5.644893646E-2
1.455496112E1,2.237126231E-2,5.613327026E-2,6.243515015E-2
1.456512347E1,3.084266186E-2,3.994384408E-2,5.655193329E-2
1.457528583E1,8.878171444E-3,3.527799249E-2,8.246421814E-3
1.458544818E1,-5.103081465E-3,3.085896373E-2,-5.569934845E-2
1.459561054E1,-1.618668437E-2,2.252390981E-2,-6.891918182E-2
1.460577289E1,-2.043932676E-2,1.508632302E-2,-2.765083313E-2
1.461593524E1,-8.437186480E-3,8.082836866E-3,3.178024292E-2
1.462609760E1,-1.790314913E-2,3.294289112E-3,3.813457489E-2
1.463629047E1,-2.249607444E-2,5.225926638E-3,6.646156311E-3
1.464645282E1,-2.238929272E-2,-4.818677902E-3,-2.899360657E-2
1.465661517E1,-1.774403453E-2,-1.198565960E-2,-3.811740875E-2
1.466677753E1,-2.724179626E-2,-4.555374384E-3,-3.292942047E-2
1.467693988E1,-1.285192370E-2,7.405310869E-3,-6.513595581E-3
1.468710223E1,1.348513365E-2,1.904749870E-2,1.707649231E-2
1.469726459E1,1.131644845E-2,3.010541201E-2,2.379322052E-2
1.470742694E1,4.464805126E-3,2.881515026E-2,9.151458740E-3
1.471758930E1,-6.849139929E-3,4.631906748E-2,-1.945304871E-2
1.472775165E1,-6.191074848E-3,5.441185832E-2,-5.694866180E-2
1.473791400E1,-2.678883076E-2,6.760120392E-2,-9.629154205E-2
1.474807636E1,-3.769028187E-2,5.762809515E-2,-8.997344971E-2
1.475823871E1,-2.937677503E-2,4.349821806E-2,-4.365634918E-2
1.476840106E1,-1.652672887E-2,2.956849337E-2,2.079677582E-2
1.477856342E1,7.573068142E-3,2.702072263E-2,7.937908173E-2
1.478872577E1,1.243796945E-2,3.795641661E-2,6.129932404E-2
1.479888812E1,1.047658920E-2,5.781644583E-2,-1.064395905E-2
1.480905048E1,-9.643435478E-4,8.477059007E-2,-9.841918945E-4
1.481921283E1,-6.253749132E-3,8.330649137E-2,4.852104187E-2
1.482937518E1,-2.849614620E-2,8.174130321E-2,5.453205109E-2
1.483956805E1,-5.705317855E-2,6.375461817E-2,-1.311769485E-1
1.484973041E1,-2.429112792E-2,5.929064751E-2,-2.801570892E-1
1.485989276E1,7.424256206E-2,1.951336861E-2,-5.052757263E-2
1.487005512E1,1.155462265E-1,-2.225953341E-2,4.649629593E-1
1.488021747E1,1.558070481E-1,-3.444111347E-2,2.389478683E-1
1.489037982E1,1.000976264E-1,-4.016846418E-3,-5.558109283E-2
1.490054218E1,-3.616076708E-2,1.194113493E-2,-3.193216324E-1
1.491070453E1,-1.104834080E-1,1.436570287E-2,-2.854948044E-1
1.492086688E1,-9.699285030E-2,-1.832506061E-2,-6.829547882E-2
1.493102924E1,-2.836215496E-2,-5.108222365E-2,1.476526260E-1
1.494119159E1,3.724831343E-2,-5.142715573E-2,2.182912827E-1
1.495135394E1,3.807079792E-2,-1.174509525E-3,8.712100983E-2
1.496151630E1,-9.721815586E-4,5.917590857E-2,-1.030693054E-1
1.497167865E1,-6.761148572E-2,1.328464746E-1,-1.838092804E-1
1.498184100E1,-9.084585309E-2,1.974856555E-1,-1.051683426E-1
1.499200336E1,-5.604279041E-2,2.045340836E-1,9.683609009E-3
1.500216571E1,-1.985314488E-2,1.578750312E-1,4.687786102E-2
1.501232806E1,2.534946799E-2,9.526312351E-2,3.150272369E-2
1.502249042E1,3.472566605E-2,3.101259470E-2,-1.020431519E-4
1.503265277E1,3.255206347E-2,-1.156029105E-2,2.017974854E-3
1.504284564E1,2.402558923E-2,-4.986974597E-2,3.011703491E-2
1.505300800E1,1.661005616E-2,-4.867130518E-2,3.183269501E-2
1.506317035E1,7.683247328E-3,-3.670716286E-2,3.123855591E-2
1.507333270E1,1.307517290E-3,-8.710980415E-3,4.019451141E-2
1.508349506E1,6.317436695E-3,2.838242054E-2,3.944587708E-2
1.509365741E1,1.157432795E-3,2.724361420E-2,4.583740234E-2
1.510381976E1,5.121976137E-3,2.604982257E-2,5.202865601E-2
1.511398212E1,-5.321383476E-3,1.536154747E-2,3.927516937E-2
1.512414447E1,-1.307955384E-2,2.111941576E-3,4.564762115E-2
1.513430682E1,-1.444756985E-3,-1.823604107E-3,-9.654998779E-3
1.514446918E1,3.641846776E-2,5.979448557E-3,-6.832408905E-2
1.515463153E1,2.991032600E-2,2.769783139E-2,7.931804657E-2
1.516479388E1,1.101514697E-2,4.862701893E-2,6.586360931E-2
1.517495624E1,-1.290959120E-2,4.586011171E-2,-9.603500366E-2
1.518511859E1,-9.961277246E-3,4.886502028E-2,-1.368741989E-1
1.519528094E1,1.363483071E-2,5.506798625E-2,-8.028602600E-2
1.520544330E1,2.055469155E-2,5.399391055E-2,-1.757144928E-2
1.521560565E1,-7.689595222E-4,5.207493901E-2,3.913879395E-3
1.522576801E1,-2.151578665E-2,4.242455959E-2,-4.345417023E-2
1.523593036E1,-2.774298191E-2,5.647662282E-2,-6.393718719E-2
1.524609271E1,-1.315590739E-2,6.115102768E-2,-2.505779266E-2
1.525625507E1,2.925217152E-3,8.025306463E-2,4.153156281E-2
1.526641742E1,2.080145478E-2,9.180977941E-2,6.439495087E-2
1.527657977E1,2.873983979E-2,7.462090254E-2,6.079864502E-2
1.528677264E1,3.139060736E-2,6.222459674E-2,5.257987976E-2
1.529693500E1,2.454751730E-2,4.028862715E-2,6.345462799E-2
1.530709735E1,1.582852006E-2,3.228455782E-2,5.049705505E-2
1.531725971E1,1.254293323E-2,2.843159437E-2,2.364635468E-2
1.532742206E1,-6.681859493E-3,1.249778271E-2,-1.929950714E-2
1.533758441E1,-1.113796234E-2,4.071444273E-3,-5.677223206E-2
1.534774676E1,-8.576601744E-3,-1.379400492E-3,-5.334377289E-2
1.535790912E1,-8.721888065E-3,-1.353752613E-2,-4.053115845E-4
1.536807147E1,-9.115844965E-3,-2.091535926E-2,2.793025970E-2
1.537823383E1,-1.401856542E-2,-1.698842645E-2,1.562881470E-2
1.538839618E1,-1.652240753E-2,-1.110953093E-2,-1.765537262E-2
1.539855853E1,-1.669001579E-2,6.776839495E-3,-5.989074707E-2
1.540872089E1,-1.484489441E-2,2.482798696E-2,-6.833076477E-2
1.541888324E1,-5.902618170E-3,2.643752098E-2,-3.411674500E-2
1.542904559E1,-1.086863875E-2,2.334991097E-2,4.206657410E-3
1.543920795E1,-3.405511379E-3,2.681359649E-2,1.360416412E-2
1.544937030E1,-2.774685621E-3,2.744844556E-2,1.558303833E-3
1.545953265E1,-6.802290678E-3,5.409115553E-2,-3.860187531E-2
1.546969501E1,-1.778540015E-2,6.894022226E-2,-9.935092926E-2
1.547985736E1,-2.138042450E-2,6.784415245E-2,-1.046600342E-1
1.549001972E1,-3.204333782E-2,5.321252346E-2,-4.135322571E-2
1.550018207E1,-1.651465893E-2,3.902205825E-2,5.154609680E-2
1.551034442E1,3.553897142E-3,4.087597132E-2,9.084415436E-2
1.552053729E1,1.854640245E-2,4.645070434E-2,4.912090302E-2
1.553069965E1,2.814114094E-3,5.879279971E-2,-2.485847473E-2
1.554086200E1,-1.166522503E-3,6.906491518E-2,-3.368854523E-2
1.555102435E1,-1.543110609E-2,7.476794720E-2,4.492950439E-2
1.556118671E1,-2.752593160E-2,7.064330578E-2,7.719039917E-2
1.557134906E1,-5.766233802E-2,6.133353710E-2,-5.203342438E-2
1.558151141E1,-4.748871922E-2,6.008699536E-2,-3.157777786E-1
1.559167377E1,4.859009385E-2,5.010196567E-2,-1.464929581E-1
1.560183612E1,1.342045665E-1,-4.212439060E-3,4.134416580E-1
1.561199847E1,1.813100874E-1,-2.838027477E-2,3.633499146E-1
1.562216083E1,1.156668067E-1,-4.243433475E-3,4.773807526E-2
1.563232318E1,-2.453038096E-2,2.129027247E-2,-3.120260239E-1
1.564248554E1,-9.857603908E-2,4.066082835E-2,-3.679294586E-1
1.565264789E1,-9.764572978E-2,2.396494150E-3,-1.279058456E-1
1.566281024E1,-3.223890066E-2,-5.353355408E-2,1.387033463E-1
1.567297260E1,2.829059958E-2,-7.198366523E-2,2.591247559E-1
1.568313495E1,5.576261878E-2,-4.051628709E-2,1.415243149E-1
1.569329730E1,1.508486271E-2,3.324553370E-2,-6.596088409E-2
1.570345966E1,-5.753961205E-2,1.075121164E-1,-1.966867447E-1
1.571362201E1,-8.465892076E-2,1.631030142E-1,-1.482715607E-1
1.572378436E1,-7.076489925E-2,2.021272182E-1,-1.595211029E-2
1.573394672E1,-1.270693541E-2,1.658670306E-1,6.441688538E-2
1.574410907E1,2.822208405E-2,1.154863238E-1,5.599308014E-2
1.575430194E1,3.563773632E-2,4.869827628E-2,1.467609406E-2
1.576446430E1,2.200004458E-2,-8.250206709E-3,-6.942749023E-3
1.577462665E1,4.309833050E-3,-4.362621903E-2,2.659797668E-3
1.578478900E1,4.404723644E-3,-3.198292851E-2,1.688385010E-2
1.579495136E1,5.342751741E-3,-1.433733106E-2,2.618026733E-2
1.580511371E1,1.601126790E-2,2.628815174E-2,3.532028198E-2
1.581527606E1,1.454445720E-2,5.685061216E-2,2.310085297E-2
1.582543842E1,-1.822829247E-3,5.898240209E-2,3.695392609E-2
1.583560077E1,-4.298895597E-3,5.426818132E-2,4.112720490E-2
1.584576312E1,-1.650029421E-2,2.621373534E-2,4.283428192E-2
1.585592548E1,-1.657801867E-2,9.092986584E-4,3.511142731E-2
1.586608783E1,1.411736012E-4,-1.229649782E-2,1.805210114E-2
1.587625018E1,3.848126531E-2,-4.225641489E-3,-7.901382446E-2
1.588641254E1,3.534004092E-2,2.956455946E-2,6.434726715E-2
1.589657489E1,2.638161182E-3,5.758738518E-2,1.009120941E-1
1.590673724E1,-3.276792169E-2,4.726576805E-2,-4.268360138E-2
1.591693012E1,-7.463216782E-3,5.230864882E-2,-1.385669708E-1
1.592709247E1,1.714193821E-2,5.630013347E-2,-1.125679016E-1
1.593725482E1,2.711185813E-2,5.851075053E-2,-6.340980530E-2
1.594741718E1,1.096913218E-2,5.351287127E-2,1.470565796E-3
1.595757953E1,-1.188358665E-2,3.163817525E-2,-1.748085022E-2
1.596774188E1,-2.235668898E-2,2.139502764E-2,-4.779720306E-2
1.597790424E1,-2.594089508E-2,4.454967380E-2,-2.560997009E-2
1.598806659E1,1.020759344E-2,5.550003052E-2,2.922534943E-2
1.599822894E1,1.710709929E-2,7.554656267E-2,5.942440033E-2
1.600839130E1,2.844193578E-2,9.049892426E-2,4.658222198E-2
1.601855365E1,2.486056089E-2,8.626955748E-2,3.632354736E-2
1.602871600E1,1.398462057E-2,8.927431703E-2,2.865505219E-2
1.603887836E1,8.033275604E-3,6.609058380E-2,4.470729828E-2
1.604904071E1,4.700720310E-3,5.219992995E-2,6.761360168E-2
1.605920306E1,4.375845194E-3,2.604001760E-2,3.806591034E-2
1.606936542E1,-6.921172142E-3,2.846324444E-2,-3.568363190E-2
1.607952777E1,-5.965948105E-3,1.218253374E-2,-6.330585480E-2
1.608969012E1,-7.898300886E-3,1.323446631E-2,-2.430534363E-2
1.609985248E1,-7.914215326E-3,1.454311609E-2,1.864528656E-2
1.611001483E1,-1.046586037E-2,1.093456149E-2,3.481006622E-2
1.612017718E1,-1.526424289E-2,2.126336098E-2,-8.267402649E-3
1.613033954E1,-2.941146493E-2,1.966857910E-2,-2.933216095E-2
1.614050189E1,-1.052957773E-2,3.057557344E-2,-5.246353149E-2
1.615069476E1,-6.275355816E-3,1.599588990E-2,-4.214763641E-2
1.616085712E1,-9.090304375E-3,1.142397523E-2,-8.371353149E-3
1.617101947E1,2.751439810E-3,8.924901485E-3,2.248668671E-2
1.618118182E1,-1.835346222E-3,2.020063996E-2,1.978874207E-2
1.619134418E1,-8.427321911E-3,2.611783147E-2,1.004219055E-2
1.620150653E1,-1.014688611E-2,4.129427671E-2,5.196571350E-3
1.621166888E1,-1.189193130E-2,6.333622336E-2,-2.084255219E-2
1.622183124E1,-1.588240266E-2,8.083480597E-2,-5.355358124E-2
1.623199359E1,-1.495009661E-2,6.525620818E-2,-8.811092377E-2
1.624215594E1,-2.094244957E-2,4.573228955E-2,-7.946681976E-2
1.625231830E1,-3.266692162E-3,3.885617852E-2,-2.610301971E-2
1.626248065E1,1.621735096E-2,2.495762706E-2,5.947113037E-2
1.627264301E1,3.037661314E-2,2.712634206E-2,1.056728363E-1
1.628280536E1,2.566480637E-2,4.499927163E-2,4.471111298E-2
1.629296771E1,-2.256780863E-3,5.785384774E-2,-4.102134705E-2
1.630313007E1,-6.523460150E-3,8.062499762E-2,-1.892471313E-2
1.631329242E1,-9.111553431E-3,9.150665998E-2,3.804588318E-2
1.632345477E1,-3.553566337E-2,8.310246468E-2,-7.687568665E-3
1.633361713E1,-4.594334960E-2,6.574606895E-2,-2.534818649E-1
1.634377948E1,4.871845245E-3,3.681054711E-2,-2.843933105E-1
1.635394183E1,9.338581562E-2,3.316253424E-3,2.763376236E-1
1.636410419E1,1.268545985E-1,-8.448660374E-3,4.879188538E-1
1.637426654E1,1.529107988E-1,2.765780687E-2,1.985015869E-1
1.638445941E1,2.844282985E-2,4.423481226E-2,-1.546249390E-1
1.639462176E1,-9.540504217E-2,5.102229118E-2,-4.471569061E-1
1.640478412E1,-1.311735809E-1,2.541309595E-2,-3.144092560E-1
1.641494647E1,-7.552275062E-2,-1.560074091E-2,1.902580261E-2
1.642510883E1,2.366232872E-2,-6.729519367E-2,2.735929489E-1
1.643527118E1,7.239022851E-2,-6.676682830E-2,2.665100098E-1
1.644543353E1,4.414573312E-2,-3.741481900E-2,3.065776825E-2
1.645559589E1,-3.177189827E-2,4.822435975E-2,-1.702804565E-1
1.646575824E1,-7.624560595E-2,1.217212677E-1,-1.672115326E-1
1.647592059E1,-7.238814235E-2,1.762863994E-1,-3.694534302E-2
1.648608295E1,-3.820431232E-2,1.771703362E-1,6.494045258E-2
1.649624530E1,1.708546281E-2,1.421452165E-1,8.240413666E-2
1.650640765E1,2.727892995E-2,8.306524158E-2,2.880668640E-2
1.651657001E1,2.367034554E-2,1.714637876E-2,-7.217407227E-3
1.652673236E1,8.731663227E-3,-1.763206720E-2,-2.845001221E-2
1.653689472E1,-5.207210779E-3,-3.102010489E-2,-1.618003845E-2
1.654705707E1,5.341172218E-3,-1.853346825E-2,-4.029273987E-3
1.655721942E1,1.603800058E-2,2.914759517E-2,1.024532318E-2
1.656738178E1,2.155742049E-2,4.540678859E-2,1.492977142E-2
1.657754413E1,5.091756582E-3,5.222213268E-2,3.598308563E-2
1.658773700E1,-9.524434805E-3,4.730349779E-2,6.130886078E-2
1.659789935E1,-1.479130983E-2,1.871523261E-2,6.727313995E-2
1.660806171E1,-2.473652363E-2,-1.027286053E-4,6.610107422E-2
1.661822406E1,-1.520207524E-2,-1.194554567E-2,6.498813629E-2
1.662838641E1,8.784353733E-3,-5.277246237E-3,-1.424694061E-2
1.663854877E1,4.263770580E-2,8.345514536E-3,-6.085872650E-2
1.664871112E1,2.280449867E-2,4.773139954E-2,9.384632111E-2
1.665887347E1,5.881488323E-4,6.244611740E-2,8.019638062E-2
1.666903583E1,-2.684473991E-2,5.116879940E-2,-1.007432938E-1
1.667919818E1,1.526731253E-2,5.312398076E-2,-1.649770737E-1
1.668936054E1,2.500590682E-2,4.923444986E-2,-6.054496765E-2
1.669952289E1,8.082330227E-3,4.803621769E-2,3.716754913E-2
1.670968524E1,1.595288515E-3,2.946940064E-2,3.360748291E-3
1.671984760E1,-1.614040136E-2,3.198161721E-2,-5.092048645E-2
1.673000995E1,-2.721634507E-2,3.932669759E-2,-2.630710602E-2
1.674017230E1,1.700162888E-3,5.631229281E-2,2.396583557E-3
1.675033466E1,8.943587542E-3,8.037239313E-2,2.292633057E-3
1.676049701E1,8.592754602E-3,9.490197897E-2,6.910324097E-3
1.677065936E1,1.247313619E-2,9.753033519E-2,3.973674774E-2
1.678082172E1,2.061766386E-2,8.342969418E-2,5.071353912E-2
1.679098407E1,1.917102933E-2,6.460961699E-2,5.441570282E-2
1.680114642E1,2.503120899E-2,5.019173026E-2,5.572414398E-2
1.681130878E1,2.864158154E-2,3.079116344E-2,3.583812714E-2
1.682147113E1,6.528139114E-3,1.626044512E-2,2.145767212E-3
1.683166400E1,1.736015081E-3,2.820953727E-2,-3.570556641E-2
1.684182636E1,-1.453322172E-2,2.873045206E-2,-3.742694855E-2
1.685198871E1,-1.426452398E-2,2.269288898E-2,-3.780364990E-3
1.686215106E1,-4.824876785E-3,1.207515597E-2,3.163337708E-2
1.687231342E1,-3.044903278E-4,1.797226071E-2,3.096199036E-2
1.688247577E1,-1.241612434E-2,9.518325329E-3,-2.724647522E-3
1.689263812E1,-1.266893744E-2,1.091504097E-2,-1.695919037E-2
1.690280048E1,-1.783350110E-2,1.278704405E-2,-4.285240173E-2
1.691296283E1,-1.340553164E-2,1.507434249E-2,-4.221725464E-2
1.692312518E1,-1.815766096E-3,1.723796129E-2,-8.533477783E-3
1.693328754E1,-2.002596855E-3,1.435390115E-2,2.459716797E-2
1.694344989E1,5.141496658E-4,2.264952660E-2,3.830432892E-2
1.695361224E1,-1.495659351E-3,3.991603851E-2,2.341365814E-2
1.696377460E1,-1.518207788E-2,5.441951752E-2,1.729965210E-3
1.697393695E1,-1.227179170E-2,7.847011089E-2,-2.903556824E-2
1.698409930E1,-2.114623785E-2,7.907581329E-2,-6.646728516E-2
1.699426166E1,-2.972823381E-2,6.110391021E-2,-8.436393738E-2
1.700442401E1,-3.564694524E-2,4.866278172E-2,-7.599639893E-2
1.701458636E1,-1.068711281E-2,3.429657221E-2,-1.335811615E-2
1.702474872E1,-4.976391792E-4,1.761567593E-2,7.188129425E-2
1.703491107E1,1.885291934E-2,3.356686234E-2,1.059761047E-1
1.704507343E1,1.942864060E-2,5.329179764E-2,3.084087372E-2
1.705523578E1,-9.626746178E-4,7.045283914E-2,-3.107166290E-2
1.706539813E1,-9.900003672E-3,8.332961798E-2,2.528190613E-3
1.707556049E1,-7.776111364E-3,7.718029618E-2,6.611061096E-2
1.708575336E1,-4.833284020E-2,6.865069270E-2,-8.636474609E-3
1.709591571E1,-5.372744799E-2,5.602708459E-2,-2.379140854E-1
1.710607806E1,8.762419224E-3,3.622189164E-2,-2.550230026E-1
1.711624042E1,8.749088645E-2,6.660044193E-3,2.389268875E-1
1.712640277E1,1.234868169E-1,-1.026660204E-2,4.226808548E-1
1.713656512E1,1.518296599E-1,-9.500920773E-3,9.174442291E-2
1.714672748E1,3.219982982E-2,8.755177259E-3,-2.005386353E-1
1.715688983E1,-9.465318918E-2,2.908289433E-2,-3.695478439E-1
1.716705218E1,-1.356203854E-1,1.303946972E-2,-2.288036346E-1
1.717721454E1,-7.692670822E-2,-2.225780487E-2,3.462123871E-2
1.718737689E1,1.110437512E-2,-5.441009998E-2,2.204151154E-1
1.719753925E1,4.614323378E-2,-5.249938369E-2,1.953010559E-1
1.720770160E1,2.773210406E-2,-1.115652919E-2,-6.324768066E-3
1.721786395E1,-2.927553654E-2,7.762524486E-2,-1.500673294E-1
1.722802631E1,-6.916287541E-2,1.446328759E-1,-1.262197495E-1
1.723818866E1,-6.771257520E-2,1.947879493E-1,-1.805305481E-2
1.724835101E1,-2.670407295E-2,1.863926649E-1,4.796218872E-2
1.725851337E1,2.559784055E-2,1.474365890E-1,6.086635590E-2
1.726870624E1,5.162075162E-2,8.038437366E-2,5.053520203E-3
1.727886859E1,3.968384862E-2,1.159355044E-2,-9.475708008E-3
1.728903094E1,2.616351843E-2,-3.327220678E-2,1.172256470E-2
1.729919330E1,1.128336787E-2,-4.306134582E-2,3.022575378E-2
1.730935565E1,9.059906006E-6,-2.773922682E-2,3.196430206E-2
1.731951801E1,5.857735872E-3,8.053004742E-3,7.737159729E-3
1.732968036E1,6.605148315E-3,2.925741673E-2,5.212783813E-3
1.733984271E1,-3.120422363E-3,4.591435194E-2,3.096008301E-2
1.735000507E1,-8.964508772E-3,4.612368345E-2,3.027534485E-2
1.736016742E1,-5.883306265E-3,2.768498659E-2,4.375171661E-2
1.737032977E1,-1.965871453E-2,2.127668262E-2,6.408977509E-2
1.738049213E1,-9.281396866E-3,-6.855905056E-3,7.226371765E-2
1.739065448E1,2.061551809E-2,-1.881045103E-2,-3.335762024E-2
1.740081683E1,3.647229075E-2,9.428083897E-3,-4.221916199E-3
1.741097919E1,8.172571659E-3,3.697612882E-2,1.113567352E-1
1.742114154E1,-7.395714521E-3,5.683189631E-2,2.166461945E-2
1.743130389E1,-4.705727100E-3,4.875522852E-2,-1.252841949E-1
1.744146625E1,1.910376549E-2,5.129760504E-2,-1.113891602E-1
1.745162860E1,3.034859896E-2,4.746738076E-2,-5.049896240E-2
1.746182147E1,2.004292607E-2,4.332959652E-2,9.248733521E-3
1.747195331E1,-1.731693745E-3,3.348851204E-2,-7.660865784E-3
1.748211566E1,-2.264484763E-2,2.318707108E-2,-5.247974396E-2
1.749230853E1,-2.014431357E-2,4.613405466E-2,-4.215621948E-2
1.750247089E1,-6.480693817E-3,7.605507970E-2,1.276779175E-2
1.751263324E1,2.323406935E-2,8.686015010E-2,4.547214508E-2
1.752279559E1,3.088971972E-2,9.029135108E-2,5.641746521E-2
1.753295795E1,3.078278899E-2,7.935851812E-2,5.763339996E-2
1.754312030E1,2.582037449E-2,6.123229861E-2,6.117057800E-2
1.755328265E1,1.440483332E-2,4.288855195E-2,7.178497314E-2
1.756344501E1,1.320406795E-2,3.590795398E-2,5.859184265E-2
1.757360736E1,1.253515482E-2,3.342732787E-2,1.733016968E-2
1.758376972E1,2.633988857E-3,2.648070455E-2,-5.150127411E-2
1.759393207E1,-1.417803764E-2,1.085734367E-2,-6.954002380E-2
1.760409442E1,-9.870052338E-3,6.867349148E-4,-1.872444153E-2
1.761425678E1,-1.062318683E-2,-7.046699524E-3,5.943679810E-2
1.762441913E1,-8.640557528E-3,-1.275628805E-3,5.591678619E-2
1.763458148E1,-1.817265153E-2,1.304030418E-3,5.292892456E-3
1.764474384E1,-1.115542650E-2,4.117548466E-3,-5.626964569E-2
1.765490619E1,-2.125921845E-2,1.225179434E-2,-6.716060638E-2
1.766506854E1,-1.742699742E-2,1.849314570E-2,-4.729461670E-2
1.767523090E1,-1.827207208E-2,2.007523179E-2,-1.585865021E-2
1.768539325E1,-6.926327944E-3,1.435312629E-2,2.213573456E-2
1.769555560E1,7.778406143E-5,1.773333549E-2,2.401065826E-2
1.770574847E1,2.401590347E-3,4.910001159E-2,-1.230239868E-4
1.771591083E1,-4.690468311E-3,4.683354497E-2,-5.923938751E-2
1.772607318E1,-1.881086826E-2,6.396138668E-2,-8.897399902E-2
1.773623554E1,-3.979140520E-2,4.818814993E-2,-7.567882538E-2
1.774639789E1,-4.606640339E-2,3.776359558E-2,-2.243328094E-2
1.775656024E1,-9.489506483E-3,2.949270606E-2,5.113792419E-2
1.776672260E1,5.094408989E-4,4.431453347E-2,7.151317596E-2
1.777688495E1,1.288130879E-2,5.347579718E-2,3.478050232E-2
1.778704730E1,1.800656319E-2,5.060815811E-2,-3.187656403E-2
1.779720966E1,-3.492653370E-3,6.949022412E-2,-4.978179932E-4
1.780737201E1,-1.604649425E-2,5.983358622E-2,7.737731934E-2
1.781753436E1,-3.312930465E-2,5.907732248E-2,6.891536713E-2
1.782769672E1,-5.883970857E-2,7.447439432E-2,-8.145046234E-2
1.783785907E1,-1.615107059E-2,5.056020617E-2,-2.927112579E-1
1.784802142E1,7.852834463E-2,4.398980737E-2,-1.239843369E-1
1.785818378E1,1.278138459E-1,4.752427340E-3,4.212446213E-1
1.786834613E1,1.631087959E-1,-2.235978842E-3,2.149991989E-1
1.787850848E1,1.047091782E-1,7.128298283E-3,-5.070781708E-2
1.788867084E1,-2.759990096E-2,1.870679855E-2,-2.459344864E-1
1.789886371E1,-9.362268448E-2,8.999615908E-3,-2.204198837E-1
1.790902606E1,-9.487956762E-2,-2.902448177E-2,-6.328296661E-2
1.791918842E1,-3.279691935E-2,-6.923362613E-2,1.007938385E-1
1.792935077E1,2.423837781E-2,-6.434547901E-2,1.582250595E-1
1.793951312E1,4.500424862E-2,-8.485853672E-3,6.115913391E-2
1.794967548E1,-2.094507217E-4,6.445938349E-2,-1.144342422E-1
1.795983783E1,-5.857118964E-2,1.386567354E-1,-1.972923279E-1
1.797000018E1,-8.104455471E-2,1.846334934E-1,-1.276559830E-1
1.798016254E1,-5.298176408E-2,1.850380898E-1,1.930236816E-3
1.799032489E1,-6.924957037E-3,1.553585529E-1,6.301403046E-2
1.800048724E1,3.390103579E-2,8.093073964E-2,3.806304932E-2
1.801064960E1,4.584136605E-2,2.122056484E-2,1.128387451E-2
1.802081195E1,2.471259236E-2,-2.411958575E-2,4.642963409E-2
1.803097430E1,1.886650920E-2,-4.432603717E-2,6.449604034E-2
1.804113666E1,1.789927483E-4,-3.513970971E-2,5.402469635E-2
1.805129901E1,4.024177790E-3,-2.029374242E-2,3.434753418E-2
1.806146136E1,1.026979089E-2,9.287297726E-4,2.921676636E-2
1.807162372E1,1.343002915E-2,3.130611777E-2,3.833484650E-2
1.808178607E1,4.053622484E-3,3.280657530E-2,5.669498444E-2
1.809194843E1,-3.253877163E-3,2.715823054E-2,6.291103363E-2
1.810211078E1,-1.518857479E-2,1.693126559E-2,5.251216888E-2
1.811227313E1,-1.258587837E-2,6.563186646E-3,4.699802399E-2
1.812243549E1,1.634865999E-2,5.429565907E-3,-3.187656403E-2
1.813262836E1,4.514282942E-2,2.771350741E-2,-3.791332245E-2
1.814279071E1,1.530668139E-2,4.701817036E-2,1.116952896E-1
1.815295306E1,-2.340057492E-2,6.295603514E-2,5.062484741E-2
1.816311542E1,-2.649196982E-2,5.304163694E-2,-1.200895309E-1
1.817327777E1,-9.691715240E-4,5.409693718E-2,-1.271667480E-1
1.818344012E1,2.593004704E-2,5.885490775E-2,-7.529640198E-2
1.819360248E1,2.201181650E-2,5.912739038E-2,-4.085636139E-2
1.820376483E1,-7.642626762E-3,5.444440246E-2,-4.007053375E-2
1.821392719E1,-3.445860744E-2,5.195796490E-2,-4.637908936E-2
1.822408954E1,-3.234121203E-2,5.218660831E-2,-6.199932098E-2
1.823425189E1,-1.159864664E-2,8.118751645E-2,-6.420135498E-3
1.824441425E1,1.050680876E-3,8.151745796E-2,4.340744019E-2
1.825457660E1,2.504864335E-2,9.836232662E-2,6.162738800E-2
1.826473895E1,8.164703846E-3,8.651614189E-2,4.877567291E-2
1.827490131E1,3.125041723E-3,7.026326656E-2,2.432346344E-2
1.828506366E1,4.985839128E-3,4.721710086E-2,3.114986420E-2
1.829522601E1,9.061604738E-3,3.847503662E-2,5.668258667E-2
1.830538837E1,8.421003819E-3,1.496800780E-2,6.996154785E-2
1.831555072E1,3.628164530E-3,-4.169940948E-3,3.100204468E-2
1.832571307E1,-2.903282642E-3,4.930496216E-4,-2.138710022E-2
1.833587543E1,-2.168029547E-3,4.827678204E-4,-3.738975525E-2
1.834603778E1,5.002319813E-4,5.544960499E-3,8.275985718E-3
1.835620013E1,-2.003818750E-3,1.285761595E-2,3.417873383E-2
1.836636249E1,-1.389253139E-2,1.030102372E-2,2.186965942E-2
1.837655536E1,-2.095517516E-2,1.935657859E-2,-9.141921997E-3
1.838671771E1,-1.136177778E-2,9.694308043E-3,-5.382537842E-2
1.839688007E1,-6.811827421E-3,2.913722396E-2,-7.649707794E-2
1.840704242E1,2.251535654E-3,4.166847467E-2,-4.444980621E-2
1.841720477E1,1.129475236E-2,3.279271722E-2,-3.449440002E-3
1.842736713E1,1.601248980E-3,2.830839157E-2,2.035903931E-2
1.843752948E1,1.909315586E-3,3.275880218E-2,3.908634186E-2
1.844769183E1,-2.137362957E-3,4.368558526E-2,2.912807465E-2
1.845785419E1,-1.072692871E-2,6.601178646E-2,5.177497864E-3
1.846801654E1,-1.676207781E-2,9.058991075E-2,-3.254032135E-2
1.847817889E1,-2.489531040E-2,9.398451447E-2,-7.209968567E-2
1.848834125E1,-3.052124381E-2,8.406847715E-2,-8.730506897E-2
1.849850360E1,-2.663531899E-2,5.377745628E-2,-5.976486206E-2
1.850866596E1,-8.555412292E-3,2.899259329E-2,1.461601257E-2
1.851882831E1,9.017139673E-3,2.075719833E-2,9.004974365E-2
1.852899066E1,1.206696033E-2,3.073677421E-2,8.629417419E-2
1.853915302E1,-1.368552446E-3,3.994417191E-2,-4.846572876E-3
1.854931537E1,-2.597212791E-3,5.189177394E-2,-4.708480835E-2
1.855947772E1,-4.547536373E-3,6.660819054E-2,1.052761078E-2
1.856964008E1,-1.915237308E-2,8.120837808E-2,5.514240265E-2
1.857980243E1,-3.091764450E-2,7.416290045E-2,-5.951976776E-2
1.858996478E1,-4.522508383E-2,5.885380507E-2,-3.113527298E-1
1.860015765E1,2.738645673E-2,3.243678808E-2,-1.777162552E-1
1.861028949E1,1.187295020E-1,-1.610672474E-2,4.135837555E-1
1.862048236E1,1.684514880E-1,-2.019670606E-2,4.153022766E-1
1.863064472E1,1.141428649E-1,1.406857371E-2,1.342906952E-1
1.864080707E1,-2.198743820E-2,4.430171847E-2,-3.099050522E-1
1.865096942E1,-1.121030152E-1,5.451297760E-2,-4.720907211E-1
1.866113178E1,-1.272525191E-1,8.498817682E-3,-2.019939423E-1
1.867129413E1,-4.329630733E-2,-3.294512630E-2,1.365652084E-1
1.868145648E1,5.636152625E-2,-7.951787114E-2,2.994041443E-1
1.869161884E1,7.252401114E-2,-5.310931802E-2,1.951837540E-1
1.870178119E1,1.872384548E-2,-1.857697964E-3,-5.817413330E-2
1.871194354E1,-5.000954866E-2,7.116118073E-2,-2.032251358E-1
1.872210590E1,-9.202507138E-2,1.494879723E-1,-1.523656845E-1
1.873226825E1,-7.139053941E-2,1.944234967E-1,1.308441162E-2
1.874243060E1,-2.314752340E-2,1.780247390E-1,1.164398193E-1
1.875259296E1,1.547819376E-2,1.373599768E-1,1.070394516E-1
1.876275531E1,2.843800187E-2,8.221498132E-2,3.425025940E-2
1.877291766E1,2.277642488E-2,3.678229451E-2,-8.837699890E-3
1.878311054E1,-1.279503107E-3,-8.258640766E-3,-3.923416138E-3
1.879324237E1,-6.762742996E-4,-1.755943894E-2,5.558013916E-3
1.880343524E1,1.476043463E-2,-3.493249416E-3,7.943153381E-3
1.881359760E1,1.597079635E-2,1.961752772E-2,7.935523987E-3
1.882375995E1,1.442953944E-2,4.023829103E-2,1.495933533E-2
1.883392230E1,7.477790117E-3,4.436421394E-2,4.306125641E-2
1.884408466E1,-4.689157009E-3,3.683170676E-2,5.885791779E-2
1.885424701E1,-1.686370373E-2,2.218165994E-2,5.072212219E-2
1.886440936E1,-1.705557108E-2,6.246268749E-4,5.452156067E-2
1.887457172E1,-5.184084177E-3,-1.629847288E-2,5.829620361E-2
1.888473407E1,2.611038089E-2,-2.930253744E-3,-7.518005371E-2
1.889489642E1,3.576359153E-2,1.014629006E-2,-2.386283875E-2
1.890505878E1,1.549431682E-2,4.194840789E-2,9.695720673E-2
1.891522113E1,-1.089915633E-2,4.472917318E-2,2.659511566E-2
1.892538348E1,-1.419621706E-2,5.042546988E-2,-1.367492676E-1
1.893554584E1,1.322963834E-2,4.304134846E-2,-1.413135529E-1
1.894570819E1,2.050679922E-2,4.379749298E-2,-2.310371399E-2
1.895587054E1,3.853678703E-3,4.193904996E-2,2.672863007E-2
1.896603290E1,-2.242892981E-3,4.162490368E-2,-4.937839508E-2
1.897619525E1,-2.009171247E-2,3.879156709E-2,-7.909202576E-2
1.898635761E1,-1.013714075E-2,5.061918497E-2,-1.865577698E-2
1.899651996E1,1.768231392E-3,7.198575139E-2,1.227188110E-2
1.900671283E1,1.117154956E-2,9.304022789E-2,1.203823090E-2
1.901687518E1,1.767033339E-2,9.478399158E-2,2.361106873E-2
1.902703754E1,1.880949736E-2,1.014888883E-1,4.200553894E-2
1.903719989E1,1.744410396E-2,7.711735368E-2,4.827690125E-2
1.904736224E1,2.095723152E-2,5.736860633E-2,5.929088593E-2
1.905752460E1,2.222728729E-2,3.753605485E-2,7.006645203E-2
1.906768695E1,2.605411410E-2,3.169828653E-2,5.229663849E-2
1.907784930E1,-1.209247112E-2,2.812439203E-2,-1.708126068E-2
1.908801166E1,-2.075040340E-2,2.741438150E-2,-6.637859344E-2
1.909817401E1,-1.055386662E-2,2.281919122E-2,-4.633617401E-2
1.910833636E1,3.884851933E-3,2.837514877E-2,6.374359131E-3
1.911849872E1,-1.534384489E-2,7.655620575E-3,3.452205658E-2
1.912866107E1,-8.249431849E-3,1.311102509E-2,1.731777191E-2
1.913882343E1,-8.366942406E-3,1.388791203E-2,-2.316665649E-2
1.914898578E1,-1.355999708E-2,5.714833736E-3,-3.465557098E-2
1.915914813E1,-1.411965489E-2,1.006343961E-2,-2.947807312E-2
1.916931049E1,-9.797751904E-3,1.228699088E-2,-1.021194458E-2
1.917947284E1,-9.898006916E-3,1.898312569E-2,1.353454590E-2
1.918963519E1,-5.066633224E-3,2.271908522E-2,2.734661102E-2
1.919979755E1,-7.058858871E-3,4.262906313E-2,3.197669983E-3
1.920999042E1,-8.926540613E-3,3.156352043E-2,-2.293109894E-2
1.922012225E1,-1.346489787E-2,5.181455612E-2,-1.313495636E-2
1.923028461E1,-1.109325886E-2,5.542266369E-2,3.464698792E-3
1.924044696E1,8.580088615E-4,8.027485013E-2,3.234863281E-3
1.925063983E1,-1.084417105E-2,7.631289959E-2,-1.582813263E-2
1.926080219E1,-5.386859179E-3,5.828765035E-2,-6.293296814E-2
1.927096454E1,-1.174855232E-2,5.777832866E-2,-7.849216461E-2
1.928112689E1,-1.326832175E-2,4.847234488E-2,-5.831718445E-2
1.929128925E1,-1.025888324E-2,3.004324436E-2,2.290534973E-2
1.930145160E1,1.618784666E-2,3.038853407E-2,9.562301636E-2
1.931161395E1,2.084767818E-2,3.430286050E-2,9.849929810E-2
1.932177631E1,2.127519250E-2,5.169209838E-2,1.404857635E-2
1.933193866E1,7.638067007E-3,6.897848845E-2,-4.284763336E-2
1.934210101E1,2.952903509E-3,7.013332844E-2,1.932144165E-2
1.935226337E1,-4.724681377E-3,7.855814695E-2,7.316875458E-2
1.936242572E1,-4.995408654E-2,8.171752095E-2,-5.140209198E-2
1.937258807E1,-3.584375978E-2,6.442523003E-2,-2.679967880E-1
1.938275043E1,2.413377166E-2,2.631139755E-2,-2.136058807E-1
1.939291278E1,8.542540669E-2,4.618763924E-3,3.053503036E-1
1.940307513E1,1.215330958E-1,-2.907961607E-3,3.581609726E-1
1.941323749E1,1.218198538E-1,-4.393309355E-3,7.556343079E-2
1.942339984E1,4.254221916E-3,1.656681299E-2,-2.307233810E-1
1.943356220E1,-1.059806645E-1,2.075478435E-2,-3.614177704E-1
1.944372455E1,-1.258935630E-1,-6.712228060E-3,-1.854085922E-1
1.945388690E1,-5.115646124E-2,-5.385169387E-2,8.441448212E-2
1.946407977E1,3.407576680E-2,-8.422064781E-2,2.504501343E-1
1.947421161E1,7.132977247E-2,-6.456676126E-2,1.917943954E-1
1.948437396E1,2.893036604E-2,2.072483301E-2,-2.391338348E-2
1.949453632E1,-3.995949030E-2,1.036435962E-1,-1.721153259E-1
1.950469867E1,-8.216080070E-2,1.888366342E-1,-1.361293793E-1
1.951489154E1,-6.394550204E-2,2.191564739E-1,-3.256607056E-2
1.952505389E1,-2.750220895E-2,1.862638295E-1,2.889728546E-2
1.953521625E1,1.315942407E-2,1.375728846E-1,2.794170380E-2
1.954537860E1,2.513304353E-2,6.115880609E-2,-1.270294189E-3
1.955554096E1,2.551054955E-2,-2.706527710E-3,-1.532554626E-3
1.956570331E1,1.710933447E-2,-2.871093154E-2,1.247024536E-2
1.957586566E1,2.774417400E-3,-2.255955338E-2,3.336048126E-2
1.958602802E1,-3.449529409E-3,-3.417402506E-3,2.565574646E-2
1.959619037E1,-4.642844200E-3,1.287919283E-2,2.522087097E-2
1.960635272E1,-8.715093136E-3,3.383174539E-2,2.240180969E-2
1.961651508E1,-4.086047411E-3,4.069972038E-2,4.554271698E-2
1.962667743E1,-7.271796465E-3,2.855294943E-2,5.166435242E-2
1.963683978E1,-1.539015770E-2,4.536211491E-3,5.769920349E-2
1.964703265E1,-2.345228195E-2,-1.723948121E-2,5.897808075E-2
1.965719501E1,-9.718000889E-3,-2.957776189E-2,5.316257477E-2
1.966735736E1,1.848661900E-2,-6.656497717E-3,-6.375694275E-2
1.967751972E1,3.951042891E-2,1.600587368E-2,-2.689933777E-2
1.968768207E1,9.211033583E-3,5.003535748E-2,1.104364395E-1
1.969784442E1,-1.057770848E-2,5.718949437E-2,3.023910522E-2
1.970800678E1,-7.157951593E-3,6.241965294E-2,-1.191215515E-1
1.971816913E1,1.970839500E-2,6.409797072E-2,-1.359853745E-1
1.972833148E1,3.125128150E-2,4.755985737E-2,-5.816078186E-2
1.973849384E1,1.634159684E-2,3.805691004E-2,1.585769653E-2
1.974865619E1,-2.625674009E-3,2.530366182E-2,-2.711963654E-2
1.975881854E1,-2.570271492E-2,3.338041902E-2,-7.631969452E-2
1.976898090E1,-1.348176599E-2,5.572846532E-2,-4.666519165E-2
1.977914325E1,2.452254295E-3,7.801121473E-2,1.240730286E-3
1.978930560E1,8.529692888E-3,9.538945556E-2,2.704906464E-2
1.979946796E1,1.903662086E-2,9.830486774E-2,3.119277954E-2
1.980963031E1,3.374037147E-2,8.483868837E-2,5.888557434E-2
1.981979266E1,3.388211131E-2,7.147198915E-2,5.772018433E-2
1.982995502E1,2.002981305E-2,5.556765199E-2,5.901622772E-2
1.984011737E1,2.339091897E-2,4.882773757E-2,3.900623322E-2
1.985027972E1,3.322005272E-3,3.472700715E-2,3.114223480E-2
1.986044208E1,-1.145833731E-2,2.322101593E-2,-1.440143585E-2
1.987060443E1,-2.826073766E-2,1.008480787E-2,-3.778171539E-2
1.988076679E1,-1.901057363E-2,-2.298772335E-3,-8.846282959E-3
1.989092914E1,-2.666687965E-2,6.997227669E-3,1.718139648E-2
1.990109149E1,-1.295655966E-2,-1.242959499E-2,4.509544373E-2
1.991128436E1,-1.370245218E-2,-8.215636015E-3,1.104927063E-2
1.992144672E1,-1.225107908E-2,2.935349941E-3,-1.763916016E-2
1.993160907E1,-1.103013754E-2,1.177853346E-2,-3.872394562E-2
1.994177142E1,-1.919639111E-2,1.391485333E-2,-4.295921326E-2
1.995193378E1,-1.781922579E-2,1.400288939E-2,-3.289508820E-2
1.996209613E1,-1.849520206E-2,9.428948164E-3,-8.854866028E-3
1.997225848E1,-7.083922625E-3,1.404434443E-2,1.243972778E-2
1.998242084E1,4.519551992E-3,3.459712863E-2,3.104114532E-2
1.999258319E1,6.662100554E-3,4.748344421E-2,6.797790527E-3
2.000274554E1,-5.433142185E-3,5.549472570E-2,-4.066848755E-2
2.001290790E1,-5.613625050E-3,6.850442290E-2,-7.785606384E-2
2.002307025E1,-1.752498746E-2,6.512308121E-2,-8.135509491E-2
2.003323261E1,-2.189907432E-2,5.276799202E-2,-4.929447174E-2
2.004339496E1,-1.417890191E-2,4.537871480E-2,1.116752625E-3
2.005355731E1,-1.873433590E-3,3.063595295E-2,5.301856995E-2
2.006371967E1,1.944902539E-2,3.912919760E-2,8.038997650E-2
2.007388202E1,2.404189110E-2,4.915368557E-2,2.461051941E-2
2.008404437E1,1.696443558E-2,6.846657395E-2,-2.061176300E-2
2.009420673E1,9.281724691E-3,7.592648268E-2,1.758193970E-2
2.010436908E1,-6.236910820E-3,8.092400432E-2,7.145690918E-2
2.011453143E1,-2.858704329E-2,5.456274748E-2,4.644012451E-2
2.012469379E1,-5.196121335E-2,5.477583408E-2,-1.531600952E-1
2.013488666E1,4.912853241E-3,5.442565680E-2,-2.827711105E-1
2.014504901E1,1.030546427E-1,2.306044102E-2,8.660411835E-2
2.015521136E1,1.177231967E-1,-1.161792874E-2,3.748235703E-1
2.016537372E1,1.404916346E-1,-2.335393429E-2,5.638504028E-2
2.017553607E1,4.449042678E-2,3.807485104E-3,-1.287393570E-1
2.018569843E1,-6.210198998E-2,5.522876978E-3,-2.282094955E-1
2.019586078E1,-1.069950163E-1,-1.391461492E-2,-1.582536697E-1
2.020602313E1,-8.696949482E-2,-5.772295594E-2,-3.522777557E-2
2.021618549E1,-2.249717712E-2,-7.345366478E-2,1.094598770E-1
2.022634784E1,2.493986487E-2,-4.698133469E-2,1.549196243E-1
2.023651019E1,2.416127920E-2,1.183447242E-2,3.902339935E-2
2.024667255E1,-1.685699821E-2,9.577387571E-2,-1.244096756E-1
2.025683490E1,-5.961892009E-2,1.693084836E-1,-1.811838150E-1
2.026699725E1,-6.421488523E-2,1.953573525E-1,-9.786796570E-2
