"Time (s)","Linear Acceleration x (m/s^2)","Linear Acceleration y (m/s^2)","Linear Acceleration z (m/s^2)"
4.930819400E-2,-4.259467125E-3,2.241270244E-2,-4.033946991E-2
5.940951200E-2,-1.333415508E-2,1.010122895E-2,-2.882957458E-2
6.954134800E-2,-1.266551018E-2,9.851545095E-3,-3.507709503E-2
7.970370200E-2,-1.837348938E-2,1.047389209E-2,-4.590129852E-2
8.983553800E-2,-6.605744362E-3,1.990032196E-2,-6.900596619E-2
9.999789100E-2,8.309066296E-3,2.014096081E-2,-7.556915283E-2
1.101297270E-1,6.138443947E-3,1.183617115E-2,-7.571983337E-2
1.202920810E-1,-6.480097771E-3,9.156703949E-3,-7.882690430E-2
1.304544340E-1,2.169966698E-3,6.391361356E-3,-6.478881836E-2
1.406167880E-1,-1.014918089E-2,8.342653513E-3,-3.671836853E-2
1.507791410E-1,-1.729685068E-2,1.091405749E-3,7.185935974E-3
1.609414950E-1,-4.092037678E-3,7.499247789E-3,7.017230988E-2
1.711038480E-1,-3.359079361E-3,1.507492363E-2,5.160045624E-2
1.812662020E-1,-1.202017069E-2,2.368719876E-2,-2.022075653E-2
1.914285550E-1,-1.771539450E-2,3.170378506E-2,-6.449985504E-2
2.015909090E-1,-3.254514933E-2,2.166202664E-2,-3.078365326E-2
2.117532620E-1,-4.041945934E-2,7.822066545E-3,3.030300140E-2
2.219156160E-1,-4.601627588E-2,-3.599151969E-3,-3.870773315E-2
2.320779690E-1,-3.110319376E-2,-4.780873656E-3,-2.956027985E-1
2.422403230E-1,2.113384008E-2,-1.967030764E-2,-3.266153336E-1
2.524026760E-1,1.092975736E-1,-2.932707965E-2,1.011142731E-1
2.625650300E-1,1.443918347E-1,-1.144316792E-2,3.270568848E-1
2.727273830E-1,5.758768320E-2,-1.573684812E-2,1.348342896E-1
2.828897370E-1,-5.373269320E-2,-3.668843210E-2,1.819324493E-2
2.930520900E-1,-9.218162298E-2,-4.932247102E-2,-9.445762634E-2
3.032144440E-1,-8.188921213E-2,-5.401477218E-2,-1.911745071E-1
3.133767980E-1,-4.037940502E-2,-4.953549802E-2,-1.795215607E-1
3.235391510E-1,1.365160942E-2,-4.380576313E-2,-2.813339233E-3
3.337015050E-1,6.562185287E-2,-8.093684912E-3,2.120714188E-1
3.438638580E-1,6.268209219E-2,4.043456167E-2,2.472381592E-1
3.540262120E-1,2.097320557E-2,7.546889782E-2,1.297731400E-1
3.641885650E-1,-3.109723330E-2,1.058980227E-1,-1.198768616E-2
3.743509190E-1,-5.410212278E-2,1.266112477E-1,-7.463073730E-2
3.845132720E-1,-5.431979895E-2,1.022101715E-1,-8.191108704E-2
3.946756260E-1,-1.652801037E-2,7.449036837E-2,-6.095600128E-2
4.048379790E-1,1.878845692E-2,2.655002475E-2,-1.253414154E-2
4.150003330E-1,4.776597023E-2,1.397479326E-2,4.624748230E-2
4.251626860E-1,6.216102839E-2,-5.651429296E-3,9.893417358E-2
4.353250400E-1,5.614286661E-2,-3.076098859E-3,1.362915039E-1
4.454873930E-1,3.294682503E-2,-7.812209427E-3,1.187572479E-1
4.556497470E-1,1.408433914E-2,-1.249356568E-2,7.836246490E-2
4.658121000E-1,1.036584377E-3,-1.118389517E-2,3.902626038E-2
4.759744540E-1,-9.436309338E-3,-1.710247993E-2,2.933502197E-3
4.861368070E-1,-2.488607168E-2,-2.459208667E-2,-2.533817291E-2
4.962991610E-1,-3.822267056E-2,-3.330266476E-2,-8.193016052E-3
5.064615140E-1,-4.270386696E-2,-2.896819264E-2,1.068878174E-2
5.165815050E-1,-1.644897461E-2,-2.651822567E-2,2.696418762E-2
5.267438580E-1,-2.447426319E-3,-1.254874468E-2,6.401157379E-2
5.369062120E-1,1.850283146E-2,1.230471581E-2,1.310825348E-2
5.470685650E-1,1.760709286E-2,3.805595636E-2,1.215543747E-1
5.572309190E-1,1.873970032E-3,5.259159952E-2,1.707448959E-1
5.673932720E-1,-2.490520477E-3,4.046924412E-2,-7.272720337E-3
5.775556260E-1,7.213175297E-3,1.291386224E-2,-1.791524887E-1
5.877179790E-1,4.286205769E-2,4.512263462E-3,-2.038927078E-1
5.978803330E-1,5.566179752E-2,2.701335959E-2,-1.126480103E-1
6.080426860E-1,4.156327248E-2,2.956065908E-2,-2.560901642E-2
6.182050400E-1,1.800656319E-2,3.049353324E-2,4.585838318E-2
6.283673930E-1,-1.724410057E-2,2.396524511E-2,1.113138199E-1
6.385297470E-1,-5.405396223E-2,2.575318702E-2,1.355295181E-1
6.486921010E-1,-6.592655182E-2,3.327488154E-2,1.286058426E-1
6.588544540E-1,-5.618035793E-2,5.605097115E-2,9.346008301E-2
6.690168080E-1,-2.331501245E-2,7.820869982E-2,5.414295197E-2
6.791791610E-1,1.547074318E-2,8.856053650E-2,2.731132507E-2
6.893415150E-1,3.876519203E-2,7.106813043E-2,2.693462372E-2
6.995038680E-1,5.143994093E-2,3.797940910E-2,6.663036346E-2
7.096662220E-1,3.727680445E-2,3.875008598E-2,9.138679504E-2
7.198285750E-1,2.141559124E-2,2.478247136E-2,7.548904419E-2
7.299909290E-1,4.370033741E-3,1.985621080E-2,4.110050201E-2
7.401532820E-1,-9.713947773E-3,5.040815100E-3,1.921081543E-2
7.503156360E-1,-2.018690109E-3,6.815629080E-3,9.442329407E-3
7.604779890E-1,-6.435215473E-3,1.348400209E-2,-1.363754272E-4
7.706403430E-1,-8.769273758E-3,8.600687608E-3,-1.900863647E-2
7.808026960E-1,-6.537675858E-3,1.142000966E-2,-1.172065735E-2
7.909650500E-1,2.039074898E-4,1.259533688E-2,2.746582031E-4
8.011274030E-1,1.806378365E-3,1.458972320E-2,2.618598938E-2
8.112897570E-1,-1.155376434E-3,7.438123226E-3,6.354331970E-2
8.214521100E-1,-3.699004650E-3,-6.655393168E-3,7.191562653E-2
8.316449810E-1,-3.516197205E-3,-1.684278250E-3,6.358623505E-2
8.417768170E-1,-1.484292746E-2,-4.171555862E-3,3.660297394E-2
8.519391710E-1,-1.637637615E-2,1.727174968E-4,2.653694153E-2
8.621015240E-1,-8.542358875E-3,1.135442406E-2,2.616119385E-2
8.722638780E-1,3.539144993E-3,2.245035022E-2,2.094745636E-2
8.824262310E-1,-1.303851604E-3,2.638422884E-2,2.301311493E-2
8.925885850E-1,3.293752670E-3,3.285946697E-2,4.626274109E-2
9.027509380E-1,1.942551136E-2,4.173332453E-2,8.091735840E-2
9.129132920E-1,3.064411879E-2,3.370773047E-2,8.422660828E-2
9.230756450E-1,3.728502989E-2,5.379186571E-2,6.386089325E-2
9.332379990E-1,2.546274662E-2,4.969871044E-2,2.267265320E-2
9.434003520E-1,2.138888836E-2,4.581519961E-2,-8.325576782E-3
9.535932240E-1,5.688905716E-3,4.251957685E-2,-2.703475952E-2
9.637250600E-1,-2.771377563E-3,3.765951842E-2,-2.759933472E-3
9.739179310E-1,1.185536385E-4,4.271036386E-2,7.299709320E-2
9.840497670E-1,-1.668715477E-2,3.100917675E-2,1.402521133E-1
9.942426380E-1,-2.540051937E-3,3.761534020E-2,1.331090927E-1
1.004404991E0,-6.954967976E-3,5.045888945E-2,5.522537231E-2
1.014567345E0,-1.326829195E-2,5.593029037E-2,-1.412487030E-2
1.024729698E0,-1.738625765E-2,5.211286619E-2,2.777099609E-3
1.034892052E0,-8.453369141E-3,4.194282740E-2,2.544403076E-3
1.045054405E0,-9.028077126E-3,3.531575203E-2,-1.702241898E-1
1.055216759E0,-5.039989948E-3,2.335131168E-3,-2.356090546E-1
1.065379112E0,2.710032463E-2,2.713207155E-3,7.629871368E-2
1.075541466E0,9.108406305E-2,2.903292701E-2,4.621315002E-1
1.085703819E0,8.427941799E-2,3.316455334E-2,2.766113281E-1
1.095866173E0,1.399934292E-3,3.178960085E-2,1.467094421E-1
1.106028526E0,-4.311472178E-2,-2.087987959E-4,-8.066082001E-2
1.116190880E0,-2.609711885E-2,-1.462908275E-2,-2.470741272E-1
1.126353233E0,-5.859255791E-3,-2.386068180E-2,-2.758913040E-1
1.136515587E0,4.670000076E-2,-2.224895172E-2,-1.529350281E-1
1.146677940E0,6.235456467E-2,-9.483592585E-3,8.123397827E-2
1.156840294E0,5.562400818E-2,1.410720125E-2,2.452173233E-1
1.167002647E0,1.569968462E-2,4.621238261E-2,2.787742615E-1
1.177165001E0,-5.371618271E-2,8.138140291E-2,2.267417908E-1
1.187327354E0,-9.473818541E-2,9.895996749E-2,1.213817596E-1
1.197489708E0,-8.234280348E-2,1.130699366E-1,2.254104614E-2
1.207652061E0,-4.702192545E-2,1.211865097E-1,-5.570125580E-2
1.217814415E0,1.064997911E-2,1.012695059E-1,-8.545207977E-2
1.227976768E0,5.489355326E-2,7.090391964E-2,-7.691192627E-2
1.238139122E0,5.531054735E-2,4.383846000E-2,-1.421451569E-2
1.248301476E0,4.596996307E-2,2.809483185E-2,7.340908051E-2
1.258463829E0,2.549570799E-2,2.894851193E-2,1.217088699E-1
1.268626183E0,3.996968269E-3,2.393777668E-2,1.101341248E-1
1.278788536E0,-9.111881256E-3,1.285293698E-2,4.454803467E-2
1.288950890E0,-1.713484526E-2,-2.030464076E-2,2.034378052E-2
1.299113243E0,-1.843863726E-2,-2.966150269E-2,2.479839325E-2
1.309275597E0,-2.527052164E-2,-3.142524511E-2,3.855705261E-2
1.319437950E0,-2.334952354E-2,-3.756421059E-2,4.493236542E-2
1.329600304E0,-2.891832590E-2,-4.102859274E-2,8.899211884E-2
1.339762657E0,-3.893893957E-2,-4.024112970E-2,1.370105743E-1
1.349925011E0,-7.913410664E-3,-1.690657809E-2,1.109628677E-1
1.360087364E0,2.343153954E-2,2.387549542E-2,1.698589325E-2
1.370249718E0,9.228765965E-3,6.570109725E-2,1.019887924E-1
1.380412071E0,-3.131031990E-4,7.797425240E-2,9.528827667E-2
1.390574425E0,1.785892248E-2,5.530075356E-2,-1.355400085E-1
1.400736778E0,4.854190350E-2,1.607705280E-2,-1.871547699E-1
1.410899132E0,6.330019236E-2,2.940836363E-2,-1.011800766E-1
1.421061485E0,6.054002047E-2,5.124303326E-2,-5.685234070E-2
1.431223839E0,4.332554340E-2,5.923774093E-2,8.983612061E-4
1.441386192E0,2.106934786E-2,6.180707365E-2,6.941699982E-2
1.451548546E0,-2.207213640E-2,6.299873441E-2,9.183979034E-2
1.461710899E0,-4.746860266E-2,5.550025403E-2,6.197166443E-2
1.471873253E0,-5.084067583E-2,6.362266839E-2,2.794551849E-2
1.482035606E0,-1.651245356E-2,7.364262640E-2,2.286624908E-2
1.492228477E0,7.185578346E-3,7.472636551E-2,5.320453644E-2
1.502390831E0,4.648107290E-2,6.465388834E-2,5.695724487E-2
1.512522667E0,6.111818552E-2,6.473072618E-2,6.537628174E-2
1.522685020E0,5.417394638E-2,4.593672976E-2,1.115093231E-1
1.532847374E0,4.250764847E-2,5.042988434E-2,1.071710587E-1
1.543009727E0,2.907097340E-2,3.524313122E-2,5.566978455E-2
1.553172081E0,-1.896423101E-2,5.503535271E-3,-2.566242218E-2
1.563334435E0,-4.213660955E-2,-1.192156225E-2,-7.010459900E-2
1.573496788E0,-4.382467270E-2,-2.849678323E-2,-5.701160431E-2
1.583689659E0,-4.141199589E-2,-1.811777055E-2,5.374908447E-3
1.593852013E0,-1.576566696E-2,-9.983710945E-3,5.954837799E-2
1.604014366E0,-1.179152727E-2,-2.051278949E-3,5.136299133E-2
1.614176720E0,8.810639381E-3,5.588222295E-3,2.917575836E-2
1.624339073E0,5.866885185E-3,1.387912780E-3,1.921081543E-2
1.634501427E0,2.000451088E-2,6.705522537E-3,1.653766632E-2
1.644663780E0,8.148312569E-3,7.556065917E-3,1.395130157E-2
1.654826134E0,-1.529258490E-2,8.583851159E-3,-3.852844238E-4
1.664988487E0,-7.433474064E-3,1.236598939E-2,-2.155685425E-2
1.675150841E0,-4.623711109E-3,1.169684529E-2,-2.349948883E-2
1.685313194E0,-9.316027164E-3,6.552763283E-3,5.318641663E-3
1.695475548E0,4.890203476E-3,1.550977677E-2,3.834629059E-2
1.705637901E0,2.633929253E-4,1.445200294E-2,2.118968964E-2
1.715800255E0,7.514655590E-3,2.494141459E-2,9.144783020E-3
1.725962608E0,1.209717989E-2,4.190623760E-2,2.793788910E-2
1.736124962E0,9.012222290E-5,3.703743964E-2,2.513027191E-2
1.746287315E0,-1.961350441E-3,4.858436435E-2,2.950000763E-2
1.756449669E0,-1.501023769E-3,5.986730009E-2,2.909374237E-2
1.766612022E0,8.476018906E-3,4.480631649E-2,4.284477234E-2
1.776774376E0,9.104073048E-3,4.891126603E-2,2.567005157E-2
1.786936729E0,9.945869446E-3,3.888767958E-2,-6.427764893E-4
1.797099083E0,8.520781994E-3,3.891789913E-2,-3.832530975E-2
1.807261436E0,-9.114921093E-3,3.709015250E-2,-5.883502960E-2
1.817423790E0,-4.979550838E-3,3.165143728E-2,-5.523681641E-2
1.827586143E0,5.504965782E-3,2.207892388E-2,4.047012329E-2
1.837748497E0,1.471012831E-2,2.673406899E-2,1.319780350E-1
1.847910851E0,1.375430822E-2,2.802285552E-2,1.225624084E-1
1.858073204E0,-7.875978947E-3,4.244087636E-2,5.432224274E-2
1.868235558E0,-2.186393738E-2,5.368325114E-2,2.520084381E-2
1.878397911E0,-1.992809772E-2,3.607156873E-2,7.678413391E-2
1.888560265E0,-3.526300192E-2,2.542684972E-2,5.161380768E-2
1.898722618E0,-3.220742941E-2,3.667934239E-2,-2.189092636E-1
1.908884972E0,9.813904762E-3,1.721152663E-2,-3.800354004E-1
1.919047325E0,6.303822994E-2,6.115958095E-3,-3.682422638E-2
1.929209679E0,1.334089637E-1,-1.658663154E-3,3.555240631E-1
1.939372032E0,1.060662866E-1,-2.599352598E-2,1.529865265E-1
1.949534386E0,3.444135189E-3,-2.904243767E-2,5.589294434E-2
1.959696739E0,-6.036454439E-2,-4.871042073E-2,-7.288074493E-2
1.969859093E0,-7.162946463E-2,-4.000748694E-2,-1.661386490E-1
1.980021446E0,-4.487484694E-2,-2.073559165E-2,-1.796474457E-1
1.990183800E0,9.722709656E-4,-7.664173841E-3,-2.251052856E-2
2.000346153E0,4.816186428E-2,3.096571565E-2,2.334251404E-1
2.010508507E0,5.930787325E-2,7.853822410E-2,3.145847321E-1
2.020670860E0,3.318446875E-2,1.251284331E-1,1.392145157E-1
2.030833214E0,-1.126784086E-2,1.441124082E-1,-5.436229706E-2
2.040995567E0,-3.483158350E-2,1.457155198E-1,-1.477203369E-1
2.051157921E0,-3.379017115E-2,1.437774152E-1,-1.309232712E-1
2.061320274E0,-9.063303471E-3,1.220788956E-1,-5.312824249E-2
2.071482628E0,3.026151657E-2,8.929382265E-2,-5.123138428E-3
2.081644981E0,4.284006357E-2,5.067436397E-2,1.376914978E-2
2.091807335E0,4.149395227E-2,1.642966270E-2,4.667091370E-2
2.101969688E0,3.406596184E-2,-1.491841674E-2,1.073598862E-1
2.112132042E0,1.640462875E-2,-3.208577633E-2,1.292181015E-1
2.122294395E0,-1.149427891E-2,-3.014428914E-2,8.458328247E-2
2.132456749E0,-3.849565983E-2,-2.482314408E-2,3.836727142E-2
2.142619102E0,-2.997201681E-2,-3.157354891E-2,1.179695129E-2
2.152781456E0,-3.183740377E-2,-3.269711137E-2,4.487991333E-3
2.162943810E0,-2.288550138E-2,-3.520026803E-2,1.857948303E-2
2.173106163E0,-2.183878422E-2,-3.462095559E-2,3.000831604E-2
2.183268517E0,-1.825630665E-3,-3.161698580E-2,2.231979370E-2
2.193430870E0,2.780854702E-2,-2.188347280E-2,6.210613251E-2
2.203593224E0,4.766154289E-2,1.046492159E-2,-2.889633179E-3
2.213755577E0,4.334121943E-2,4.603575170E-2,1.108512878E-1
2.223917931E0,1.191818714E-2,6.328450143E-2,1.888751984E-1
2.234080284E0,8.531749249E-3,4.179635644E-2,-2.737998962E-2
2.244242638E0,2.393078804E-2,1.445175707E-2,-1.921319962E-1
2.254404991E0,4.087334871E-2,1.531405747E-2,-1.793127060E-1
2.264567345E0,4.474782944E-2,3.430694342E-2,-9.578895569E-2
2.274729698E0,3.182423115E-2,3.700266778E-2,5.094528198E-3
2.284892052E0,1.417708397E-2,3.915360570E-2,4.754066467E-2
2.295054405E0,-5.433499813E-3,4.447723925E-2,8.452415466E-2
2.305216759E0,-2.224147320E-2,5.979463458E-2,8.066272736E-2
2.315379112E0,-2.852660418E-2,9.234368801E-2,3.915023804E-2
2.325541466E0,1.258909702E-3,9.791466594E-2,2.199840546E-2
2.335703819E0,3.706496954E-2,1.082783788E-1,1.695632935E-2
2.345866173E0,5.740278959E-2,8.798186481E-2,2.367496490E-2
2.356028526E0,6.545275450E-2,6.363505125E-2,1.374340057E-2
2.366190880E0,4.244911671E-2,3.945831954E-2,4.655075073E-2
2.376353233E0,1.739728451E-2,1.279979944E-2,8.105850220E-2
2.386515587E0,-1.167821884E-2,1.639890671E-2,4.408264160E-2
2.396708458E0,-2.535802126E-2,7.648631930E-3,-2.052497864E-2
2.406870811E0,-3.145700693E-2,6.147414446E-3,-7.457065582E-2
2.417033165E0,-2.348351479E-2,-6.644472480E-3,-7.329177856E-2
2.427195518E0,-1.391166449E-2,-4.272684455E-3,-3.424739838E-2
2.437357872E0,-5.133569241E-3,-6.280794740E-3,1.824951172E-2
2.447520226E0,1.511216164E-2,-3.426581621E-3,2.011203766E-2
2.457682579E0,1.635038853E-2,-1.264017820E-2,3.133773804E-3
2.467844933E0,1.109421253E-2,-2.189475298E-2,-1.587486267E-2
2.478007286E0,6.505250931E-3,-7.270365953E-3,-1.798343658E-2
2.488169640E0,-1.193237305E-2,4.780888557E-3,-3.425598145E-3
2.498331993E0,-1.364821196E-2,-1.158836484E-2,5.975723267E-3
2.508494347E0,-2.953314781E-2,3.132745624E-3,-1.193046570E-3
2.518656700E0,-1.683896780E-2,5.765452981E-3,1.235961914E-3
2.528819054E0,7.548987865E-3,1.090483367E-2,8.320808411E-3
2.538981407E0,1.988077164E-2,2.303749323E-2,5.742073059E-3
2.549143761E0,3.691875935E-2,2.558574080E-2,-1.558876038E-2
2.559306114E0,3.245377541E-2,3.293962777E-2,-3.415584564E-2
2.569468468E0,3.295940161E-2,3.088194132E-2,-3.348636627E-2
2.579630821E0,2.178770304E-2,4.074765742E-2,-1.630687714E-2
2.589793175E0,6.202280521E-3,3.861835599E-2,-8.848190308E-3
2.599955528E0,-9.155869484E-3,4.085884988E-2,2.921390533E-2
2.610117882E0,-1.217782497E-3,4.493534565E-2,7.607173920E-2
2.620280235E0,-8.108019829E-3,5.069373548E-2,7.469844818E-2
2.630442589E0,-7.706880569E-3,6.074941158E-2,1.665878296E-2
2.640604942E0,-2.150732279E-2,7.547560334E-2,-2.141857147E-2
2.650767296E0,-9.658455849E-3,7.166878879E-2,7.275581360E-3
2.660929649E0,1.232683659E-3,7.062883675E-2,4.481697083E-2
2.671092003E0,-2.125036716E-2,6.003569067E-2,-3.434371948E-2
2.681254356E0,-1.485621929E-2,3.636448085E-2,-2.843694687E-1
2.691416710E0,1.855552197E-2,2.973337471E-2,-2.905788422E-1
2.701579063E0,9.646934271E-2,2.312117815E-2,1.475238800E-1
2.711741417E0,1.132370830E-1,3.208932281E-2,3.736267090E-1
2.721903770E0,1.428908110E-2,1.894704998E-2,1.779460907E-1
2.732066124E0,-8.135026693E-2,-1.332223415E-2,-4.698753357E-3
2.742228477E0,-1.007262468E-1,-3.683050722E-2,-1.395587921E-1
2.752390831E0,-7.369023561E-2,-4.926593602E-2,-2.247276306E-1
2.762553185E0,-1.259034872E-2,-3.521254659E-2,-2.042407990E-1
2.772715538E0,5.008733273E-2,-1.022577286E-2,-1.389598846E-2
2.782877892E0,9.027701616E-2,2.198055387E-3,2.038793564E-1
2.793040245E0,8.768862486E-2,5.918906629E-2,2.617855072E-1
2.803202599E0,3.692156076E-2,9.788423777E-2,1.345510483E-1
2.813364952E0,-4.087597132E-2,1.268151700E-1,1.039505005E-4
2.823527306E0,-7.776993513E-2,1.271135658E-1,-6.352519989E-2
2.833689659E0,-8.226275444E-2,1.224809214E-1,-9.075355530E-2
2.843852013E0,-4.115569592E-2,1.092016548E-1,-9.399604797E-2
2.854014366E0,1.190793514E-2,8.045180142E-2,-7.368564606E-2
2.864176720E0,5.369383097E-2,5.442471057E-2,-2.297401428E-2
2.874339073E0,6.405746937E-2,3.428953886E-2,3.871059418E-2
2.884501427E0,5.360001326E-2,4.181034863E-3,1.040925980E-1
2.894663780E0,3.717130423E-2,1.492146403E-2,1.495151520E-1
2.904826134E0,2.243930101E-2,1.352693141E-2,1.161947250E-1
2.914988487E0,1.137077808E-2,1.248390228E-2,6.466388702E-2
2.925150841E0,6.951689720E-4,3.352835774E-3,1.639461517E-2
2.935313194E0,-1.966333389E-2,-5.318209529E-3,-5.102157593E-3
2.945475548E0,-2.372646332E-2,-1.787939668E-2,-1.680660248E-2
2.955637901E0,-2.842772007E-2,-1.969601214E-2,-2.366733551E-2
2.965800255E0,-1.687908173E-2,-8.874677122E-3,1.930713654E-2
2.975962608E0,3.798663616E-3,6.731219590E-3,6.853103638E-2
2.986124962E0,3.400307894E-2,3.101918846E-2,-8.440971375E-3
2.996287315E0,2.602541447E-2,5.184866488E-2,5.577278137E-2
3.006449669E0,5.111098289E-4,8.578300476E-2,1.277561188E-1
3.016612022E0,-2.016484737E-3,7.412044704E-2,-4.955768585E-2
3.026774376E0,2.404391766E-3,3.354297206E-2,-2.234230042E-1
3.036936729E0,2.318084240E-2,4.344054312E-2,-2.098932266E-1
3.047099083E0,5.395644903E-2,6.019930914E-2,-9.049797058E-2
3.057261436E0,3.138846159E-2,6.356868893E-2,-2.530288696E-2
3.067423790E0,1.619130373E-2,5.272185057E-2,-1.132965088E-3
3.077586143E0,5.725204945E-3,3.858710825E-2,1.005458832E-1
3.087748497E0,-6.629228592E-3,3.708634526E-2,1.554775238E-1
3.097910851E0,-2.703982592E-2,3.365113586E-2,1.127157211E-1
3.108073204E0,-3.015947342E-2,4.315273464E-2,6.366443634E-2
3.118235558E0,6.544232368E-3,5.917546153E-2,4.139518738E-2
3.128397911E0,3.764086962E-2,7.279316336E-2,2.886772156E-2
3.138560265E0,4.879182577E-2,6.770631671E-2,3.077316284E-2
3.148722618E0,3.062552214E-2,5.592179298E-2,6.339454651E-2
3.158915489E0,2.183258533E-2,4.170100018E-2,8.819484711E-2
3.169047325E0,-7.622480392E-3,3.882108256E-2,4.639053345E-2
3.179240196E0,-9.679973125E-3,3.073543310E-2,-2.049160004E-2
3.189402550E0,5.468428135E-3,2.040220797E-2,-6.254577637E-2
3.199564903E0,1.090246439E-2,2.024010196E-2,-4.482460022E-2
3.209727257E0,-5.535602570E-3,2.066276595E-2,-1.810646057E-2
3.219859093E0,-1.030832529E-2,1.454043016E-2,-1.314830780E-2
3.230051964E0,-7.966518402E-3,1.365036517E-2,-3.898525238E-2
3.240214317E0,-2.478832006E-2,2.242651954E-2,-1.702880859E-2
3.250376671E0,-1.571732759E-2,1.919109747E-2,1.391792297E-2
3.260539024E0,-1.122951508E-2,1.139663905E-2,2.071285248E-2
3.270701378E0,-1.552999020E-3,5.956001580E-3,8.564949036E-3
3.280863731E0,1.088380814E-3,-1.814279705E-3,-5.731582642E-3
3.291026085E0,-9.433031082E-4,7.570162416E-5,-5.587577820E-3
3.301188438E0,1.139593124E-2,-2.832699567E-3,-1.016902924E-2
3.311350792E0,2.139687538E-2,1.079574972E-2,-9.903907776E-3
3.321513145E0,1.962834597E-2,2.683121711E-2,2.194404602E-3
3.331675499E0,3.555953503E-3,3.329494596E-2,2.584838867E-2
3.341837852E0,-5.269050598E-3,2.993054688E-2,2.781391144E-2
3.352000206E0,-6.662189960E-3,3.336060792E-2,3.448963165E-2
3.362162560E0,-5.612432957E-3,3.644579276E-2,4.104804993E-2
3.372324913E0,2.984464169E-3,4.878053814E-2,-9.182929993E-3
3.382487267E0,1.184576750E-2,5.399350077E-2,-5.616950989E-2
3.392649620E0,1.648068428E-3,4.780452326E-2,-7.629871368E-2
3.402811974E0,5.508005619E-3,3.069530241E-2,-3.938770294E-2
3.412974327E0,-6.420016289E-4,3.570728749E-2,2.289676666E-2
3.423136681E0,1.174592972E-2,3.348612785E-2,9.350967407E-2
3.433299034E0,6.949841976E-3,4.960177466E-2,1.273546219E-1
3.443461388E0,2.730906010E-3,6.444680691E-2,5.430030823E-2
3.453623741E0,-1.263886690E-2,6.920602173E-2,-3.164577484E-2
3.463786095E0,-2.082002163E-2,7.205847651E-2,-5.694007874E-2
3.473948448E0,-2.043789625E-2,5.670317635E-2,-2.280902863E-2
3.484110802E0,-2.809488773E-2,3.998184949E-2,-5.349254608E-2
3.494273155E0,-1.996225119E-2,2.726667374E-2,-2.677164078E-1
3.504435509E0,1.877826452E-2,5.288431421E-3,-2.412843704E-1
3.514597862E0,7.425123453E-2,1.868934557E-2,2.195816040E-1
3.524760216E0,1.317591667E-1,2.823556773E-2,3.875465393E-1
3.534922569E0,7.330763340E-2,2.985138074E-2,2.131643295E-1
3.545084923E0,-4.266703129E-2,9.481891990E-3,2.722930908E-2
3.555247276E0,-8.111095428E-2,-1.148748212E-2,-2.167711258E-1
3.565409630E0,-5.111086369E-2,-4.251711071E-3,-3.075628281E-1
3.575571983E0,-7.101714611E-3,-1.035388559E-2,-2.643651962E-1
3.585734337E0,4.296612740E-2,-6.432231516E-3,-3.987979889E-2
3.595896690E0,6.556636095E-2,1.887638122E-2,2.089309692E-1
3.606059044E0,4.256588221E-2,4.345322400E-2,3.092317581E-1
3.616221397E0,-1.459872723E-2,7.319057733E-2,2.449016571E-1
3.626383751E0,-6.001490355E-2,9.406088293E-2,1.156253815E-1
3.636546104E0,-6.850665808E-2,1.107417792E-1,-4.365921021E-3
3.646708458E0,-3.950804472E-2,1.210262552E-1,-9.870815277E-2
3.656870811E0,-4.524588585E-4,1.222568527E-1,-1.536912918E-1
3.667033165E0,4.142636061E-2,9.900873899E-2,-1.488170624E-1
3.677195518E0,6.738030910E-2,6.061435491E-2,-9.206199646E-2
3.687388390E0,6.643551588E-2,4.364433885E-2,8.611679077E-3
3.697550743E0,4.922896624E-2,2.685143426E-2,8.633995056E-2
3.707713097E0,2.618038654E-2,1.363746077E-2,9.183502197E-2
3.717875450E0,2.362966537E-3,1.990173757E-2,6.199645996E-2
3.728037804E0,-1.562339067E-2,1.050535589E-3,2.562236786E-2
3.738169640E0,-4.523348808E-2,-1.326891780E-2,1.109981537E-2
3.748362511E0,-7.268899679E-2,-2.705774084E-2,1.100444794E-2
3.758524864E0,-6.030017138E-2,-2.345398068E-2,1.317405701E-2
3.768687218E0,-4.160720110E-2,-2.398086339E-2,4.125595093E-2
3.778849571E0,-2.103823423E-2,-1.222904772E-2,7.125473022E-2
3.789011925E0,6.567716599E-3,1.323729753E-3,1.030817032E-1
3.799174278E0,3.677511215E-2,1.830389351E-2,3.968334198E-2
3.809336632E0,5.772900581E-2,4.347606748E-2,6.257057190E-3
3.819498985E0,2.786207199E-2,6.036636233E-2,1.503105164E-1
3.829661339E0,2.700781822E-2,5.500845611E-2,5.046463013E-2
3.839823692E0,3.124630451E-2,3.398718685E-2,-2.196636200E-1
3.849986046E0,4.312241077E-2,2.243757993E-2,-2.390375137E-1
3.860148399E0,5.745106936E-2,2.725642174E-2,-1.072759628E-1
3.870310753E0,3.264760971E-2,3.533159196E-2,-3.456974030E-2
3.880473106E0,1.026517153E-2,3.600700200E-2,2.747917175E-2
3.890635460E0,-1.698046923E-2,4.958690703E-2,8.375072479E-2
3.900797813E0,-2.914965153E-2,5.418337882E-2,8.703327179E-2
3.910960167E0,-3.540062904E-2,6.650808454E-2,4.775333405E-2
3.921122520E0,-1.976644993E-2,7.088424265E-2,1.632690430E-2
3.931284874E0,1.684367657E-2,7.544039935E-2,2.325439453E-2
3.941447227E0,6.149315834E-2,7.106717676E-2,2.759933472E-2
3.951609581E0,6.450176239E-2,6.981317699E-2,3.893375397E-2
3.961771935E0,5.048024654E-2,5.699766427E-2,6.898975372E-2
3.971934288E0,3.168255091E-2,5.111115426E-2,6.063175201E-2
3.982096642E0,6.798326969E-3,4.683443904E-2,5.107879639E-3
3.992258995E0,-2.982258797E-3,3.975667804E-2,-4.697990417E-2
4.002421349E0,-1.938611269E-2,3.034349531E-2,-7.448005676E-2
4.012583702E0,-2.614814043E-2,2.795755863E-4,-4.952716827E-2
4.022746056E0,-2.844494581E-2,-7.713302970E-3,2.933692932E-2
4.032908409E0,-1.916527748E-2,-8.490137756E-3,8.074760437E-2
4.043070763E0,-2.605319023E-3,1.877846569E-2,4.382896423E-2
4.053233116E0,-9.799063206E-3,9.819544852E-3,-1.835918427E-2
4.063395470E0,-4.104375839E-4,6.019599736E-3,-4.401493073E-2
4.073557823E0,-1.239252090E-2,-1.685552299E-3,-3.846645355E-2
4.083720177E0,-1.700317860E-2,-1.072689891E-3,-4.693984985E-3
4.093882530E0,-1.685982943E-2,-4.560142756E-3,1.306533813E-4
4.104044884E0,-9.725153446E-3,6.376191974E-3,-6.982803345E-3
4.114207237E0,-7.415652275E-3,1.716320217E-2,-2.103424072E-2
4.124369591E0,6.330966949E-3,1.811294258E-2,-1.590251923E-2
4.134531944E0,5.470991135E-3,2.343672514E-2,9.136199951E-4
4.144694298E0,2.133059502E-2,3.519771993E-2,1.976203918E-2
4.154856651E0,3.761583567E-2,3.931465745E-2,-1.832008362E-3
4.165019005E0,4.498213530E-2,3.141199052E-2,-3.003501892E-2
4.175181358E0,3.561639786E-2,3.323549032E-2,-1.757431030E-2
4.185343712E0,7.248640060E-3,4.227495193E-2,4.135131836E-3
4.195506065E0,-3.464460373E-2,4.896225035E-2,-1.008701324E-2
4.205668419E0,-5.209982395E-2,3.655150533E-2,-1.455688477E-2
4.215830772E0,-3.828567266E-2,4.102143645E-2,-2.838706970E-2
4.225993126E0,-2.477180958E-2,4.553970695E-2,3.021240234E-3
4.236155479E0,6.927549839E-3,4.299893975E-2,4.557704926E-2
4.246317833E0,4.244565964E-2,4.761983454E-2,7.790946960E-2
4.256480186E0,6.070667505E-2,6.150610745E-2,4.823207855E-2
4.266642540E0,3.366649151E-2,5.860652030E-2,-6.895065308E-3
4.276804893E0,1.882427931E-2,4.905436933E-2,-1.861572266E-3
4.286967247E0,5.812168121E-3,4.920887947E-2,6.195831299E-2
4.297129601E0,-1.708179712E-2,2.752630413E-2,4.176616669E-2
4.307291954E0,-4.253965616E-2,2.005034685E-2,-2.025327682E-1
4.317454308E0,-9.223043919E-3,1.418340206E-2,-3.710470200E-1
4.327616661E0,6.386530399E-2,-8.088648319E-4,-1.850891113E-2
4.337779015E0,1.251883507E-1,8.879005909E-4,3.522043228E-1
4.347941368E0,7.277405262E-2,-1.677960157E-2,1.592702866E-1
4.358103722E0,-4.055368900E-2,-3.944382071E-2,3.363800049E-2
4.368266075E0,-8.461439610E-2,-5.917206407E-2,-1.019191742E-1
4.378458946E0,-7.731908560E-2,-5.244711041E-2,-1.901483536E-1
4.388621300E0,-2.551126480E-2,-3.932790458E-2,-1.891708374E-1
4.398753136E0,4.499334097E-2,-1.317851245E-2,-2.489471436E-2
4.408915489E0,8.098733425E-2,1.216611266E-2,2.167558670E-1
4.419077843E0,7.444787025E-2,5.823677778E-2,2.603225708E-1
4.429240196E0,1.702517271E-2,9.591820836E-2,9.995937347E-2
4.439433067E0,-3.458714485E-2,1.412207335E-1,-8.821678162E-2
4.449595421E0,-4.645913839E-2,1.492668986E-1,-1.503820419E-1
4.459757774E0,-4.328668118E-2,1.341159195E-1,-1.312494278E-1
4.469920128E0,-1.592189074E-2,9.410016239E-2,-1.007156372E-1
4.480082481E0,1.910215616E-2,5.262364447E-2,-3.766727448E-2
4.490244835E0,5.530035496E-2,2.198623121E-2,5.025291443E-2
4.500407188E0,7.268881798E-2,-4.579707980E-3,1.130609512E-1
4.510569542E0,4.148799181E-2,-9.928688407E-3,1.299810410E-1
4.520731895E0,7.781445980E-3,6.752759218E-4,8.756637573E-2
4.530894249E0,-7.640898228E-3,-7.788047194E-3,2.705478668E-2
4.541056602E0,-1.784056425E-2,-2.749711275E-3,-2.301979065E-2
4.551218956E0,-1.896071434E-2,-9.210512042E-3,-4.861736298E-2
4.561381310E0,-2.795583010E-2,-2.400304377E-2,-3.837394714E-2
4.571543663E0,-3.077965975E-2,-3.977738321E-2,-4.705429077E-3
4.581706017E0,-3.198945522E-2,-2.624715865E-2,3.544616699E-2
4.591868370E0,-1.434844732E-2,-2.254138887E-2,4.883956909E-2
4.602030724E0,1.313418150E-2,-7.651001215E-4,5.969905853E-2
4.612193077E0,2.186977863E-2,1.967096329E-2,-2.428245544E-2
4.622355431E0,3.990483284E-2,5.578285456E-2,1.179885864E-2
4.632517784E0,1.122003794E-2,6.724619865E-2,1.317405701E-1
4.642680138E0,2.567172050E-3,5.958969891E-2,1.463890076E-3
4.652842491E0,8.266866207E-3,2.732652426E-2,-1.898593903E-1
4.663004845E0,4.275965691E-2,7.255449891E-3,-2.029743195E-1
4.673167198E0,4.733896255E-2,2.254568040E-2,-1.119232178E-1
4.683329552E0,3.946298361E-2,3.837156296E-2,1.055240631E-2
4.693491905E0,1.514023542E-2,3.229935467E-2,4.812335968E-2
4.703654259E0,-2.020448446E-2,2.966949344E-2,6.630611420E-2
4.713816612E0,-2.664381266E-2,4.191771150E-2,9.835529327E-2
4.723978966E0,-3.490704298E-2,4.544851184E-2,7.541561127E-2
4.734141319E0,-2.353328466E-2,5.285683274E-2,4.585647583E-2
4.744303673E0,3.668069839E-3,6.256096065E-2,3.799629211E-2
4.754466026E0,4.136538506E-2,7.023100555E-2,8.925437927E-3
4.764628380E0,5.657410622E-2,6.641146541E-2,-2.440071106E-2
4.774790733E0,6.142383814E-2,6.070423126E-2,-4.444122314E-4
4.784953087E0,3.970253468E-2,6.208728999E-2,4.665660858E-2
4.795115440E0,1.873838902E-2,4.868204147E-2,2.909946442E-2
4.805277794E0,1.323014498E-2,5.136340857E-2,-1.638984680E-2
4.815440147E0,-9.617209435E-4,2.300030738E-2,-3.266429901E-2
4.825602501E0,-5.211293697E-3,-7.486179471E-3,-6.134033203E-3
4.835764854E0,-1.419544220E-2,-6.685189903E-3,2.937793732E-2
4.845927208E0,-2.785795927E-2,-1.124463975E-3,3.119277954E-2
4.856089561E0,-2.941608429E-2,1.140824705E-2,4.615783691E-3
4.866251915E0,-5.219376087E-2,2.391120791E-2,-4.280567169E-2
4.876414268E0,-4.883807898E-2,3.652587533E-2,-7.279205322E-2
4.886576622E0,-2.698612213E-2,4.004840553E-2,-8.818244934E-2
4.896738976E0,-1.045507193E-2,2.286678553E-2,-6.074428558E-2
4.906931847E0,1.761919260E-2,-3.094345331E-3,-1.957702637E-2
4.917063683E0,5.487513542E-2,-7.240146399E-3,2.094745636E-2
4.927226036E0,6.585216522E-2,-4.583679140E-3,4.655170441E-2
4.937388390E0,5.606627464E-2,6.896197796E-3,5.526447296E-2
4.947550743E0,3.044855595E-2,1.515930146E-2,6.623077393E-2
4.957713097E0,3.131866455E-3,3.708667681E-2,4.628467560E-2
4.967875450E0,-2.577054501E-2,5.629398674E-2,-4.037857056E-3
4.978037804E0,-3.235685825E-2,6.841973960E-2,-8.420944214E-2
4.988200157E0,-3.167998791E-2,6.729341298E-2,-1.298484802E-1
4.998362511E0,-1.496392488E-2,3.704928234E-2,-1.109580994E-1
5.008524864E0,-1.801669598E-2,2.277525142E-2,-6.880664825E-2
5.018687218E0,-1.225841045E-2,3.083335981E-2,2.704715729E-2
5.028849571E0,-6.617903709E-4,3.156657889E-2,1.376485825E-1
5.039011925E0,1.264506578E-2,4.270425439E-2,1.422119141E-1
5.049174278E0,1.704525948E-2,5.711784214E-2,5.940818787E-2
5.059336632E0,2.212285995E-2,6.819880754E-2,-2.425193787E-2
5.069498985E0,2.681142092E-2,6.262773275E-2,-2.373695374E-2
5.079661339E0,6.768047810E-3,5.071543530E-2,9.749412537E-3
5.089823692E0,-8.759081364E-3,4.907506704E-2,-8.298587799E-2
5.099986046E0,-4.647374153E-4,3.476260975E-2,-2.965450287E-1
5.110148399E0,1.921015978E-2,-5.123194307E-3,-2.034597397E-1
5.120310753E0,8.839637041E-2,2.347224206E-2,3.226957321E-1
5.130473106E0,1.150099635E-1,3.779136762E-2,3.660306931E-1
5.140635460E0,1.985991001E-2,3.666476905E-2,1.778669357E-1
5.150797813E0,-7.333254814E-2,1.369733363E-2,-5.455398560E-2
5.160960167E0,-8.457732201E-2,-1.186911389E-2,-2.663211823E-1
5.171122520E0,-5.891323090E-2,-2.533762157E-2,-3.137817383E-1
5.181284874E0,1.370376348E-2,-3.291017562E-2,-2.515859604E-1
5.191447227E0,6.829267740E-2,-1.889626309E-2,-2.732563019E-2
5.201640099E0,1.118615866E-1,1.605968922E-2,2.118473053E-1
5.211771935E0,7.409393787E-2,4.506764933E-2,2.909517288E-1
5.221934288E0,-2.183914185E-3,8.596552908E-2,2.316913605E-1
5.232096642E0,-6.640285254E-2,1.086729318E-1,1.073503494E-1
5.242258995E0,-9.332114458E-2,1.225977838E-1,6.501197815E-3
5.252451866E0,-9.425354004E-2,1.182541773E-1,-7.381916046E-2
5.262614220E0,-4.461115599E-2,1.192557886E-1,-1.245155334E-1
5.272776573E0,1.210647821E-2,9.545177221E-2,-1.413774490E-1
5.282938927E0,3.847432137E-2,6.584055722E-2,-9.415245056E-2
5.293101280E0,6.888091564E-2,3.617980331E-2,1.776695251E-3
5.303263634E0,6.593531370E-2,1.895893924E-2,9.142684937E-2
5.313425987E0,5.445277691E-2,1.243871078E-2,1.370677948E-1
5.323588341E0,2.334511280E-2,-3.357168287E-3,1.017637253E-1
5.333750694E0,-8.752107620E-3,-6.576990709E-3,5.054187775E-2
5.343913048E0,-4.272127151E-2,-1.309654489E-2,1.669979095E-2
5.354075401E0,-6.735414267E-2,-2.690893412E-2,-4.855155945E-3
5.364237755E0,-6.619709730E-2,-1.630049944E-2,-4.730892181E-2
5.374400108E0,-4.652142525E-2,-7.205720060E-3,-3.708839417E-2
5.384562462E0,-1.109331846E-2,1.666676626E-2,-8.123397827E-3
5.394724815E0,2.374678850E-2,-6.881779060E-3,5.344486237E-2
5.404887169E0,4.417526722E-2,2.237828448E-3,2.394962311E-2
5.415049522E0,4.095518589E-2,2.908378467E-2,5.223846436E-2
5.425211876E0,3.722250462E-3,5.912800878E-2,1.622333527E-1
5.435374229E0,3.382444382E-3,6.416552514E-2,1.730728149E-2
5.445536583E0,1.019191742E-2,3.203196824E-2,-2.262220383E-1
5.455698936E0,2.433514595E-2,3.560613841E-2,-2.361631393E-1
5.465861290E0,3.900587559E-2,3.898313642E-2,-1.045541763E-1
5.476023643E0,4.099965096E-2,4.382286593E-2,-4.373550415E-2
5.486185997E0,1.652914286E-2,4.894133285E-2,1.608371735E-2
5.496348351E0,8.341670036E-3,4.129030183E-2,8.665561676E-2
5.506510704E0,-1.411259174E-3,4.149226472E-2,9.457111359E-2
5.516673058E0,-2.443182468E-2,5.405455083E-2,4.810428619E-2
5.526835411E0,-2.321422100E-2,7.716448605E-2,1.662063599E-2
5.536997765E0,-5.791068077E-3,8.097922057E-2,-4.902839661E-3
5.547160118E0,1.543581486E-2,8.065779507E-2,-1.195907593E-2
5.557322472E0,2.610117197E-2,5.771774426E-2,1.189136505E-2
5.567484825E0,3.605926037E-2,6.392589211E-2,3.528499603E-2
5.577647179E0,3.379017115E-2,5.816158280E-2,9.598731995E-2
5.587809532E0,2.252799273E-2,3.722014278E-2,8.235836029E-2
5.597971886E0,1.490616798E-2,3.701254725E-2,1.001548767E-2
5.608134239E0,3.436923027E-3,2.933612466E-2,-5.152130127E-2
5.618296593E0,-1.710462570E-2,1.275520772E-2,-6.478881836E-2
5.628458946E0,-1.855999231E-2,4.055351019E-3,-4.944515228E-2
5.638621300E0,-3.723663092E-2,1.311691478E-2,-3.209114075E-2
5.648783653E0,-3.470838070E-2,2.039775252E-2,-1.030826569E-2
5.658946007E0,-4.407244921E-2,3.070454858E-2,1.583766937E-2
5.669138878E0,-1.543277502E-2,2.253294364E-2,2.733421326E-2
5.679270714E0,6.105422974E-3,3.611400723E-2,2.920722961E-2
5.689463585E0,-8.931756020E-4,2.365566418E-2,1.689434052E-2
5.699595421E0,-5.282938480E-3,2.107084543E-2,1.899242401E-2
5.709788292E0,-2.600669861E-3,2.570397407E-2,1.159000397E-2
5.719950645E0,2.467393875E-3,2.075813711E-2,-5.153656006E-3
5.730082481E0,5.058467388E-3,2.525902726E-2,1.623916626E-2
5.740275352E0,1.004344225E-2,2.718610875E-2,2.074241638E-2
5.750437706E0,1.962107420E-2,4.544216022E-2,2.040863037E-2
5.760600060E0,1.740312576E-2,5.399071425E-2,2.010917664E-2
5.770762413E0,6.009817123E-3,5.995936692E-2,5.644798279E-3
5.780894249E0,9.621977806E-3,5.209074914E-2,-2.267742157E-2
5.791087120E0,1.575934887E-2,4.244903103E-2,-4.344272614E-2
5.801249474E0,1.449251175E-2,3.579091281E-2,-6.391143799E-2
5.811411827E0,-1.008689404E-3,1.812545955E-2,-6.276512146E-2
5.821574181E0,-2.414107323E-3,2.035224810E-2,-2.845954895E-2
5.831736534E0,4.968583584E-3,2.732507698E-2,5.481052399E-2
5.841898888E0,9.239792824E-3,3.349935636E-2,1.129112244E-1
5.852061241E0,1.590347290E-2,4.290638119E-2,1.132774353E-1
5.862223595E0,2.004683018E-3,4.880311713E-2,5.938625336E-2
5.872385948E0,-8.732378483E-3,6.357251108E-2,-1.476573944E-2
5.882548302E0,1.810014248E-3,8.082811534E-2,-2.852344513E-2
5.892710655E0,1.330256462E-2,7.224398106E-2,-2.335071564E-2
5.902873009E0,-6.634831429E-3,5.293780193E-2,-1.556634903E-1
5.913035362E0,1.961648464E-3,1.219686866E-2,-2.851610184E-1
5.923197716E0,6.090158224E-2,7.594339550E-4,-1.023988724E-1
5.933360069E0,1.065139771E-1,1.630101725E-2,3.672237396E-1
5.943522423E0,1.135701537E-1,1.977179945E-2,2.420578003E-1
5.953684776E0,1.211702824E-2,2.736698464E-2,4.680538177E-2
5.963847130E0,-5.757153034E-2,-1.484113932E-2,-8.653545380E-2
5.974009483E0,-6.942719221E-2,-3.276778758E-2,-2.198371887E-1
5.984171837E0,-6.501847506E-2,-4.129482061E-2,-2.490882874E-1
5.994334190E0,-3.211289644E-2,-3.775368631E-2,-1.406450272E-1
6.004496544E0,1.638007164E-2,-1.191751659E-2,8.405494690E-2
6.014658897E0,4.496288300E-2,2.152670920E-2,2.290897369E-1
6.024821251E0,1.903241873E-2,6.101915240E-2,1.827259064E-1
6.034983604E0,-1.055258512E-2,1.135672256E-1,9.937572479E-2
6.045145958E0,-4.680079222E-2,1.287821382E-1,1.513671875E-2
6.055308311E0,-5.935615301E-2,1.305138469E-1,-5.829524994E-2
6.065470665E0,-2.554565668E-2,1.112328023E-1,-1.116666794E-1
6.075633018E0,2.557957172E-2,8.887182921E-2,-1.358222961E-1
6.085795372E0,5.597889423E-2,7.472687215E-2,-9.343242645E-2
6.095957726E0,6.639283895E-2,2.685983479E-2,-2.575778961E-2
6.106120079E0,4.864603281E-2,7.763065398E-3,8.337211609E-2
6.116282433E0,2.270352840E-2,-1.306189597E-2,1.552181244E-1
6.126444786E0,-1.082634926E-2,-3.662070632E-2,1.336507797E-1
6.136607140E0,-2.617746592E-2,-3.881464154E-2,7.480525970E-2
6.146769493E0,-3.876721859E-2,-3.060045838E-2,1.450347900E-2
6.156931847E0,-3.271138668E-2,-2.522230148E-2,-2.588176727E-2
6.167094200E0,-3.235286474E-2,-2.854309231E-2,-3.489780426E-2
6.177256554E0,-2.577269077E-2,-7.100537419E-3,5.839347839E-3
6.187418907E0,-1.022315025E-2,-6.465286016E-3,3.877353668E-2
6.197581261E0,1.716530323E-2,8.335456252E-3,5.223369598E-2
6.207743614E0,3.760617971E-2,1.284524798E-2,6.788444519E-2
6.217905968E0,5.805844069E-2,3.277711570E-2,-1.367092133E-2
6.228068321E0,3.063744307E-2,5.167685449E-2,6.711959839E-2
6.238230675E0,2.701520920E-3,7.429553568E-2,1.460018158E-1
6.248393028E0,2.680718899E-3,6.124970317E-2,-6.944084167E-2
6.258555382E0,2.133738995E-2,2.614697814E-2,-2.617321014E-1
6.268717735E0,3.911721706E-2,2.931383252E-2,-1.812772751E-1
6.278880089E0,5.950003862E-2,5.038894713E-2,-4.826068878E-2
6.289042442E0,4.394418001E-2,5.227860808E-2,-1.196670532E-2
6.299204796E0,1.017689705E-2,5.088782310E-2,3.798103333E-2
6.309367149E0,-2.090954781E-2,6.229868531E-2,7.517719269E-2
6.319529503E0,-3.925698996E-2,5.290770531E-2,6.439971924E-2
6.329691856E0,-5.930078030E-2,5.724889040E-2,1.372528076E-2
6.339854210E0,-4.613125324E-2,5.936421454E-2,-5.361557007E-3
6.350016563E0,-7.823646069E-3,5.744273961E-2,2.780914307E-2
6.360178917E0,5.278688669E-2,5.643738806E-2,5.096530914E-2
6.370341270E0,7.153123617E-2,5.320717394E-2,7.842063904E-2
6.380503624E0,7.567214966E-2,4.257023335E-2,7.459831238E-2
6.390665977E0,5.196088552E-2,3.820951283E-2,5.668926239E-2
6.400828331E0,2.428495884E-2,2.822993696E-2,1.311206818E-2
6.410990685E0,-2.376317978E-3,2.503126860E-2,-5.332851410E-2
6.421153038E0,-2.107745409E-2,1.763454080E-2,-9.965229034E-2
6.431315392E0,-3.972476721E-2,-2.940058708E-3,-5.300140381E-2
6.441477745E0,-2.529442310E-2,1.060996950E-2,2.113723755E-2
6.451640099E0,-1.359945536E-2,7.166489959E-3,4.670619965E-2
6.461802452E0,-1.386421919E-2,1.071271300E-2,8.134841919E-3
6.471964806E0,-1.417541504E-2,1.392599940E-2,-1.325511932E-2
6.482127159E0,-1.908874512E-2,9.915366769E-3,-2.485752106E-2
6.492289513E0,-4.032373428E-2,-1.000061631E-2,-1.733016968E-2
6.502451866E0,-2.326935530E-2,1.508384943E-3,-1.702213287E-2
6.512614220E0,-1.811063290E-2,1.298731565E-2,-1.672172546E-2
6.522807091E0,1.183688641E-3,5.529507995E-3,-4.558563232E-3
6.532969444E0,1.791483164E-2,1.917029917E-2,-9.138107300E-3
6.543131798E0,2.748942375E-2,3.238987923E-2,-6.546974182E-3
6.553294151E0,3.470659256E-2,3.068186343E-2,3.380680084E-2
6.563456505E0,2.548015118E-2,3.545235097E-2,1.911926270E-2
6.573618858E0,1.687216759E-2,3.968767822E-2,-4.698753357E-3
6.583781212E0,-1.042658091E-2,4.104758799E-2,-2.814102173E-2
6.593943565E0,-4.124104977E-3,4.677198827E-2,-2.286148071E-2
6.604105919E0,-1.659482718E-2,3.804720938E-2,-2.236747742E-2
6.614268272E0,-2.155786753E-2,3.162203729E-2,-2.891445160E-2
6.624430626E0,-6.828904152E-4,2.766914666E-2,1.428699493E-2
6.634592979E0,2.361494303E-2,4.233205318E-2,6.607437134E-2
6.644755333E0,1.847904921E-2,4.666388035E-2,7.904148102E-2
6.654917686E0,1.127070189E-2,4.095673561E-2,2.560520172E-2
6.665080040E0,4.573702812E-3,6.106962264E-2,-4.333209991E-2
6.675242393E0,1.208251715E-2,6.009750068E-2,-2.586078644E-2
6.685404747E0,-2.567231655E-3,5.718651414E-2,4.540824890E-2
6.695567101E0,-2.230101824E-2,3.300161660E-2,6.501197815E-3
6.705729454E0,-3.494012356E-2,2.612031996E-2,-2.702341080E-1
6.715891808E0,9.666681290E-4,1.444160938E-2,-3.571920395E-1
6.726054161E0,7.300388813E-2,1.037836075E-2,1.602554321E-2
6.736216515E0,1.265232563E-1,8.673563600E-3,3.460502625E-1
6.746378868E0,6.740427017E-2,4.064932466E-3,1.957559586E-1
6.756541222E0,-4.301661253E-2,-1.537850499E-2,6.244182587E-2
6.766703575E0,-8.416092396E-2,-2.701582015E-2,-7.121276855E-2
6.776865929E0,-7.614195347E-2,-3.080043197E-2,-2.024869919E-1
6.787028282E0,-3.351992369E-2,-2.969339490E-2,-2.533130646E-1
6.797190636E0,3.214669228E-2,-7.216393948E-3,-7.852840424E-2
6.807352989E0,6.798034906E-2,1.535442472E-2,1.687145233E-1
6.817515343E0,6.320458651E-2,5.908212066E-2,2.389831543E-1
6.827677696E0,1.213890314E-2,9.676235914E-2,1.191329956E-1
6.837840050E0,-4.700535536E-2,1.272398233E-1,-1.031208038E-2
6.848002403E0,-7.025700808E-2,1.361204088E-1,-7.143306732E-2
6.858164757E0,-6.622684002E-2,1.326864958E-1,-7.731723785E-2
6.868327110E0,-1.910883188E-2,9.924153239E-2,-8.325099945E-2
6.878489464E0,3.297674656E-2,6.923022121E-2,-6.548309326E-2
6.888651817E0,6.919378042E-2,4.629909992E-2,-1.256942749E-2
6.898814171E0,6.932651997E-2,2.812735736E-3,6.547164917E-2
6.908976524E0,5.611652136E-2,-6.020024419E-3,1.232757568E-1
6.919138878E0,1.848310232E-2,-1.243999600E-2,1.164026260E-1
6.929301231E0,3.962874413E-3,6.958179176E-3,9.078121185E-2
6.939463585E0,-1.433128119E-2,7.580637932E-3,3.247547150E-2
6.949625938E0,-1.320606470E-2,-1.834608614E-3,-1.289272308E-2
6.959788292E0,-1.497143507E-2,-8.355155587E-3,-3.392124176E-2
6.969950645E0,-1.972687244E-2,-1.380756497E-2,-1.450729370E-2
6.980112999E0,-2.257096767E-2,-1.097161323E-2,-2.514839172E-3
6.990275352E0,-2.547997236E-2,-5.226902664E-3,3.057289124E-2
7.000437706E0,-1.150667667E-2,4.999399185E-3,5.593585968E-2
7.010600060E0,1.426303387E-2,2.616579831E-2,-1.843357086E-2
7.020762413E0,3.655791283E-3,6.494003534E-2,6.946372986E-2
7.030924767E0,1.088178158E-2,1.021062657E-1,1.246061325E-1
7.041087120E0,7.535696030E-3,6.743657589E-2,-4.321193695E-2
7.051249474E0,4.661744833E-2,4.615522921E-2,-1.888227463E-1
7.061442345E0,6.879049540E-2,2.738282084E-2,-1.949529648E-1
7.071604698E0,7.812833786E-2,3.937058151E-2,-1.348400116E-1
7.081767052E0,4.425352812E-2,4.065456986E-2,-5.218982697E-2
7.091898888E0,3.721117973E-3,2.784355730E-2,1.723480225E-2
7.102091759E0,-4.576075077E-2,1.667055488E-2,7.839965820E-2
7.112254112E0,-7.288825512E-2,2.528619766E-2,1.077852249E-1
7.122416466E0,-7.994812727E-2,4.633612186E-2,6.344509125E-2
7.132578819E0,-4.653477669E-2,5.893430114E-2,1.285457611E-2
7.142741173E0,-1.247525215E-4,7.372081280E-2,7.945060730E-3
7.152903526E0,4.966491461E-2,7.240929455E-2,-3.975868225E-3
7.163065880E0,6.745666265E-2,6.013382971E-2,7.904052734E-3
7.173228233E0,6.792229414E-2,4.618401453E-2,4.789924622E-2
7.183390587E0,5.141758919E-2,4.173349962E-2,1.037721634E-1
7.193552940E0,2.378547192E-2,3.408711776E-2,1.018753052E-1
7.203715294E0,-1.189583540E-2,2.788433805E-2,-6.285667419E-3
7.213877647E0,-2.038413286E-2,1.190980524E-2,-7.462120056E-2
7.224040001E0,-1.697015762E-2,5.987342447E-3,-7.330513000E-2
7.234202354E0,-2.365052700E-3,5.581684411E-3,-4.609012604E-2
7.244364708E0,2.167999744E-3,1.530088112E-2,-2.410984039E-2
7.254527061E0,1.122432947E-2,1.827460900E-2,-4.835128784E-3
7.264689415E0,1.319706440E-2,2.393575571E-2,-7.230758667E-3
7.274851768E0,-3.506422043E-3,1.314497180E-2,-2.599525452E-2
7.285014122E0,-9.040832520E-4,9.680779651E-3,-1.867294312E-3
7.295176476E0,-7.520616055E-3,6.306376308E-3,7.580757141E-3
7.305338829E0,-1.144391298E-2,5.268521607E-3,5.175590515E-3
7.315501183E0,-1.978904009E-2,4.046639428E-3,9.895324707E-3
7.325663536E0,-2.563977242E-2,9.622151032E-3,9.823799133E-3
7.335825890E0,-1.721864939E-2,1.009187847E-2,1.446533203E-2
7.345988243E0,-4.312217236E-3,2.680393495E-2,1.192569733E-2
7.356150597E0,5.905508995E-3,3.155783564E-2,9.421348572E-3
7.366312950E0,2.082335949E-2,5.262948573E-2,-1.194477081E-2
7.376475304E0,3.338509798E-2,3.797392547E-2,-4.242897034E-2
7.386637657E0,4.146540165E-2,3.337831423E-2,-7.942008972E-2
7.396800011E0,2.113997936E-2,2.484988049E-2,-6.137275696E-2
7.406962364E0,5.767345428E-3,3.348825499E-2,-2.710628510E-2
7.417124718E0,-5.026817322E-3,4.207340628E-2,6.091594696E-2
7.427287071E0,-1.152825356E-2,5.703588575E-2,1.165542603E-1
7.437449425E0,-2.264481783E-2,7.343838364E-2,7.203102112E-2
7.447611778E0,-2.830600739E-2,8.666971326E-2,-2.128791809E-2
7.457774132E0,-2.658402920E-2,7.608284801E-2,-5.149459839E-2
7.467936485E0,-1.618921757E-2,6.397522986E-2,-3.278732300E-3
7.478098839E0,-1.435905695E-2,4.549247399E-2,2.027797699E-2
7.488261192E0,-1.702463627E-2,3.732845187E-2,-1.528873444E-1
7.498423546E0,-2.837538719E-3,1.208526362E-2,-2.776203156E-1
7.508585899E0,4.967063665E-2,6.149987690E-3,-4.052162170E-2
7.518748253E0,9.778314829E-2,3.840195388E-2,3.781299591E-1
7.528910606E0,8.200144768E-2,4.892027751E-2,2.366123199E-1
7.539072960E0,-1.902341843E-2,3.744716942E-2,7.668113708E-2
7.549235313E0,-7.429176569E-2,1.001870073E-2,-1.068220139E-1
7.559397667E0,-6.165331602E-2,-2.819302678E-2,-2.515544891E-1
7.569560020E0,-5.652546883E-3,-4.406157136E-2,-3.086919785E-1
7.579722374E0,3.498196602E-2,-4.213567823E-2,-2.016696930E-1
7.589884727E0,7.671648264E-2,-3.843219578E-2,5.001831055E-2
7.600047081E0,7.238489389E-2,2.073551994E-3,2.381296158E-1
7.610209435E0,3.038662672E-2,4.319386184E-2,2.647447586E-1
7.620402306E0,-3.614181280E-2,9.627451748E-2,1.917171478E-1
7.630564659E0,-8.409166336E-2,1.099720225E-1,7.280349731E-2
7.640727013E0,-7.887047529E-2,1.131733805E-1,-2.516937256E-2
7.650889366E0,-4.362642765E-2,1.060050428E-1,-9.324359894E-2
7.661051720E0,1.566648483E-2,8.996794373E-2,-1.437282562E-1
7.671214073E0,6.577020884E-2,7.557019591E-2,-1.390666962E-1
7.681376427E0,9.296333790E-2,5.705957860E-2,-6.362342834E-2
7.691538780E0,7.718491554E-2,3.766190261E-2,4.126167297E-2
7.701701134E0,6.969720125E-2,3.002822772E-2,1.019678116E-1
7.711863487E0,4.694509506E-2,6.559555419E-3,1.049385071E-1
7.722025841E0,1.635283232E-2,7.414129563E-3,7.012176514E-2
7.732188194E0,-3.447335958E-2,2.023367211E-3,4.543495178E-2
7.742350548E0,-5.175137520E-2,-3.017763421E-2,3.061676025E-2
7.752512901E0,-7.399433851E-2,-2.861510962E-2,4.132270813E-3
7.762675255E0,-6.827056408E-2,-2.890634909E-2,-3.377723694E-2
7.772837608E0,-4.443812370E-2,-1.899502240E-2,-1.434516907E-2
7.782999962E0,-2.137774229E-2,7.206629962E-4,4.252910614E-2
7.793162315E0,2.024137974E-2,2.433636039E-2,7.476615906E-2
7.803324669E0,5.731564760E-2,3.224243969E-2,-1.408290863E-2
7.813487022E0,4.948812723E-2,6.749493629E-2,4.072666168E-2
7.823649376E0,1.733523607E-2,7.294043899E-2,1.060056686E-1
7.833811729E0,8.190214634E-3,4.044483602E-2,-7.089710236E-2
7.843974083E0,3.444790840E-3,2.152377553E-2,-2.300872803E-1
7.854136436E0,2.148795128E-2,2.639884315E-2,-1.456279755E-1
7.864298790E0,2.612006664E-2,4.005685449E-2,-5.815219879E-2
7.874461143E0,1.648104191E-2,7.317370921E-2,-1.933574677E-2
7.884623497E0,6.493926048E-3,5.819290131E-2,3.301620483E-2
7.894785851E0,3.787040710E-3,5.180876702E-2,7.733058929E-2
7.904948204E0,-1.711481810E-2,6.054628640E-2,5.945682526E-2
7.915110558E0,-2.781188488E-2,5.379405990E-2,8.880615234E-3
7.925272911E0,-2.187824249E-2,6.120987236E-2,-5.322456360E-3
7.935435265E0,3.764629364E-4,5.713915080E-2,-1.706314087E-2
7.945597618E0,2.658486366E-2,6.590028107E-2,-9.631156921E-3
7.955759972E0,3.285288811E-2,5.664277077E-2,3.542613983E-2
7.965922325E0,1.719802618E-2,5.498084426E-2,8.442020416E-2
7.976084679E0,1.326531172E-2,5.532490462E-2,1.159381866E-1
7.986247032E0,9.675383568E-3,4.498978704E-2,8.545780182E-2
7.996409386E0,-4.587590694E-3,4.075074196E-2,6.049156189E-3
8.006571739E0,-6.198763847E-3,2.441273257E-2,-5.781173706E-2
8.016734093E0,8.624494076E-3,1.114471257E-2,-7.572078705E-2
8.026896446E0,1.080363989E-2,8.749976754E-3,-6.971073151E-2
8.037058800E0,-1.716315746E-3,9.822815657E-3,-4.495620728E-2
8.047221153E0,6.973445415E-3,2.112746984E-2,-2.067947388E-2
8.057383507E0,3.529071808E-3,1.853272133E-2,7.947921753E-3
8.067545860E0,-1.166927814E-2,1.122195274E-2,3.129386902E-2
8.077708214E0,-2.147436142E-2,1.557838731E-2,3.787517548E-2
8.087870567E0,-1.168686152E-2,9.900327772E-3,2.775573730E-2
8.098032921E0,3.118157387E-3,1.124054007E-2,1.314640045E-2
8.108195274E0,2.531528473E-2,3.370659798E-2,-1.774883270E-2
8.118357628E0,2.349841595E-2,3.274095803E-2,-4.812812805E-2
8.128519981E0,2.154511213E-2,3.491249681E-2,-4.957103729E-2
8.138712852E0,4.051923752E-4,4.469309747E-2,-2.509117126E-2
8.148875206E0,-6.534337997E-3,3.807711601E-2,6.029129028E-3
8.159037560E0,-1.329851151E-2,3.405615687E-2,3.187847137E-2
8.169199913E0,-3.059148788E-3,3.437754139E-2,5.391120911E-3
8.179362267E0,2.309381962E-3,4.139709845E-2,-1.685142517E-3
8.189524620E0,-4.417181015E-3,5.728627741E-2,1.730442047E-2
8.199686974E0,7.479786873E-4,6.316284835E-2,1.229763031E-2
8.209849327E0,1.050347090E-2,5.933995545E-2,1.447868347E-2
8.219981163E0,2.720665932E-2,5.576895177E-2,-1.181316376E-2
8.230143517E0,2.271288633E-2,5.014142022E-2,-4.229068756E-2
8.240305870E0,2.802640200E-2,4.048983008E-2,-5.568504333E-2
8.250468224E0,1.441669464E-2,3.161386773E-2,-3.104877472E-2
8.260630577E0,-3.469288349E-3,2.097668871E-2,-1.385593414E-2
8.270823448E0,-1.420998573E-2,2.725771815E-2,3.855609894E-2
8.280985802E0,7.217526436E-4,3.071713075E-2,1.065893173E-1
8.291148155E0,-6.235659122E-3,4.505375028E-2,1.141653061E-1
8.301310509E0,-1.757562160E-2,4.392583668E-2,3.898239136E-2
8.311472862E0,-2.621185780E-2,3.292828053E-2,-6.408691406E-3
8.321635216E0,-1.634770632E-2,2.918213978E-2,1.035308838E-2
8.331797569E0,-1.237416267E-2,3.984880447E-2,1.944637299E-2
8.341959923E0,-3.671586514E-3,2.933066897E-2,-1.420049667E-1
8.352122276E0,5.231022835E-3,8.930204436E-3,-3.260669708E-1
8.362284630E0,5.306130648E-2,-1.277562231E-3,-2.040739059E-1
8.372446983E0,1.091551781E-1,4.461117089E-3,2.651033401E-1
8.382609337E0,9.967273474E-2,1.097070053E-2,2.196569443E-1
8.392771690E0,-2.027630806E-3,5.337737501E-3,6.493377686E-2
8.402934044E0,-7.426100969E-2,-2.376042679E-2,-2.854061127E-2
8.413096397E0,-7.442700863E-2,-3.436165303E-2,-1.486864090E-1
8.423258751E0,-6.533300877E-2,-4.835781083E-2,-1.933469772E-1
8.433421104E0,-1.322776079E-2,-2.971813828E-2,-1.260099411E-1
8.443583458E0,4.028511047E-2,1.121483743E-3,7.485866547E-2
8.453745811E0,6.923919916E-2,3.963731974E-2,1.941776276E-1
8.463908165E0,3.647387028E-2,9.174694866E-2,1.696395874E-1
8.474070518E0,-7.394552231E-3,1.315855384E-1,6.292343140E-2
8.484232872E0,-5.054581165E-2,1.323462427E-1,-8.928298950E-3
8.494395226E0,-4.878616333E-2,1.201529503E-1,-6.304645538E-2
8.504557579E0,-3.407591581E-2,1.082837731E-1,-9.038639069E-2
8.514719933E0,7.615327835E-3,8.805097640E-2,-9.126663208E-2
8.524882286E0,3.817033768E-2,7.317478210E-2,-6.617355347E-2
8.535044640E0,4.205363989E-2,3.590857983E-2,-1.787662506E-2
8.545206993E0,3.459793329E-2,1.279737055E-2,6.507968903E-2
8.555369347E0,1.403421164E-2,2.249345183E-3,1.301431656E-1
8.565531700E0,2.320170403E-3,-1.382716000E-3,1.137886047E-1
8.575694054E0,-3.377974033E-3,-1.620043069E-2,5.296707153E-2
8.585856407E0,-6.446421146E-3,-1.773677766E-2,-2.128601074E-3
8.596018761E0,-1.263499260E-2,-1.667948812E-2,-1.853179932E-2
8.606181114E0,-2.677392960E-2,-2.903546393E-2,-2.057838440E-2
8.616343468E0,-2.264237404E-2,-2.603243291E-2,-1.310348511E-3
8.626505821E0,-2.377301455E-2,-3.432225436E-2,2.697467804E-2
8.636668175E0,-3.657281399E-3,-2.134978771E-2,6.895065308E-2
8.646830528E0,2.606940269E-2,1.458972692E-4,6.768703461E-2
8.656992882E0,6.292873621E-2,2.986837178E-2,-2.807617188E-2
8.667155235E0,5.140972137E-2,7.277272642E-2,6.953620911E-2
8.677317589E0,2.687889338E-2,6.944911927E-2,1.412801743E-1
8.687479942E0,1.155066490E-2,4.492562264E-2,-3.625774384E-2
8.697642296E0,2.256280184E-2,1.041086018E-2,-2.339429855E-1
8.707804649E0,3.558737040E-2,1.883782446E-3,-1.847200394E-1
8.717967003E0,3.755253553E-2,3.019791842E-2,-3.972053528E-2
8.728129356E0,8.775711060E-3,3.930009902E-2,1.058197021E-2
8.738322227E0,-7.166028023E-3,5.195465684E-2,2.708911896E-2
8.748484581E0,-1.834160089E-2,7.017590106E-2,5.274009705E-2
8.758646935E0,-2.897709608E-2,8.443988860E-2,4.720020294E-2
8.768809288E0,-2.952313423E-2,8.825027943E-2,1.817703247E-2
8.778971642E0,-1.994788647E-3,8.282825351E-2,3.867149353E-3
8.789133995E0,2.894365788E-2,6.613706052E-2,2.981853485E-2
8.799296349E0,5.388545990E-2,6.666912138E-2,5.293464661E-2
8.809458702E0,7.094734907E-2,5.056619644E-2,4.964542389E-2
8.819621056E0,5.208003521E-2,5.121199787E-2,4.883480072E-2
8.829783409E0,3.374606371E-2,4.158926010E-2,6.922817230E-2
8.839945763E0,-7.870197296E-3,3.597778082E-2,3.483867645E-2
8.850108116E0,-4.140138626E-2,2.301509678E-2,-4.851818085E-2
8.860270470E0,-5.051052570E-2,7.989346981E-3,-1.044406891E-1
8.870432823E0,-3.863304853E-2,1.012235880E-3,-9.324169159E-2
8.880595177E0,-1.398444176E-3,-9.697496891E-3,-2.551078796E-2
8.890757530E0,1.121300459E-2,-3.481790423E-3,6.222820282E-2
8.900919884E0,2.598410845E-2,-8.645653725E-5,7.516193390E-2
8.911082237E0,1.486617327E-2,-6.828293204E-3,1.937484741E-2
8.921244591E0,6.971776485E-3,-8.932873607E-3,-2.591705322E-2
8.931406944E0,-9.614646435E-3,-8.403643966E-3,-5.379390717E-2
8.941569298E0,-2.355557680E-2,4.373371601E-3,-5.284309387E-2
8.951731651E0,-3.052097559E-2,7.756665349E-3,-3.541851044E-2
8.961894005E0,-1.404964924E-2,-5.779415369E-4,-1.751899719E-3
8.972056358E0,7.059931755E-3,-9.139791131E-3,-1.780509949E-3
8.982218712E0,2.583879232E-2,-1.762837172E-3,-8.873939514E-3
8.992381065E0,2.795833349E-2,1.897215843E-2,7.858276367E-4
9.002543419E0,1.922607422E-3,1.738730073E-2,1.256847382E-2
9.012705772E0,4.698634148E-3,4.384522140E-2,5.249023438E-3
9.022868126E0,-1.832371950E-2,4.805439711E-2,-1.140594482E-2
9.033030479E0,-1.011306047E-2,4.038380086E-2,-2.536201477E-2
9.043192833E0,5.085527897E-3,4.728834331E-2,-3.669738770E-2
9.053355186E0,1.771062613E-2,3.542111814E-2,-4.318714142E-2
9.063517540E0,1.756548882E-3,2.617450804E-2,-3.058338165E-2
9.073679893E0,-6.773531437E-3,2.424746752E-2,-1.816940308E-2
9.083842247E0,-7.293820381E-4,3.446174413E-2,-1.160621643E-3
9.094004601E0,1.648074389E-2,4.200056940E-2,5.332660675E-2
9.104166954E0,3.025627136E-2,4.675246775E-2,8.304595947E-2
9.114329308E0,2.010565996E-2,6.022614986E-2,4.374504089E-2
9.124491661E0,5.670130253E-3,6.144478917E-2,-2.081489563E-2
9.134654015E0,-3.739655018E-3,4.628325254E-2,-3.688049316E-2
9.144816368E0,-2.072465420E-2,5.065787584E-2,2.046298981E-2
9.154978722E0,-3.586298227E-2,4.762300104E-2,3.405857086E-2
9.165141075E0,-5.008643866E-2,2.815768868E-2,-1.607303619E-1
9.175303429E0,-3.959286213E-2,3.336213529E-3,-3.325481415E-1
9.185465782E0,3.578817844E-2,-2.553354204E-2,-1.181039810E-1
9.195628136E0,1.247718334E-1,-9.351894259E-4,3.163585663E-1
9.205790489E0,1.192736030E-1,1.143882424E-2,3.245763779E-1
9.215952843E0,2.042055130E-4,-1.129172742E-3,1.275234222E-1
9.226115196E0,-7.170343399E-2,-3.279720247E-2,-4.735755920E-2
9.236277550E0,-8.565217257E-2,-3.133891523E-2,-1.955947876E-1
9.246439903E0,-5.770951509E-2,-4.200927168E-2,-2.679100037E-1
9.256602257E0,1.041764021E-2,-3.055688739E-2,-1.969270706E-1
9.266764610E0,7.706999779E-2,-5.729742348E-3,4.529571533E-2
9.276926964E0,1.020486355E-1,2.746371180E-2,2.169542313E-1
9.287089317E0,7.543224096E-2,7.157114893E-2,1.943130493E-1
9.297251671E0,3.119367361E-2,1.072882935E-1,8.241748810E-2
9.307414024E0,-2.642929554E-2,1.314996034E-1,8.420944214E-4
9.317576378E0,-5.284619331E-2,1.389337778E-1,-4.170131683E-2
9.327738731E0,-6.795471907E-2,1.171921566E-1,-9.062004089E-2
9.337901085E0,-4.635560513E-2,9.156946093E-2,-1.175317764E-1
9.348063438E0,6.786525249E-3,7.860071212E-2,-6.606483459E-2
9.358225792E0,3.972434998E-2,5.583462864E-2,-1.076602936E-2
9.368388145E0,6.543403864E-2,3.388247266E-2,5.787086487E-2
9.378550499E0,5.612361431E-2,2.283723280E-2,1.111888885E-1
9.388712852E0,4.345661402E-2,1.468936354E-2,9.752750397E-2
9.398875206E0,1.313573122E-2,1.657663286E-2,4.397773743E-2
9.409037560E0,-6.883203983E-3,5.602020770E-3,-8.646965027E-3
9.419199913E0,-1.512742043E-2,-1.958549395E-2,-3.209114075E-2
9.429362267E0,-3.342419863E-2,-2.956289798E-2,-3.623199463E-2
9.439524620E0,-4.033565521E-2,-2.434179001E-2,-2.380752563E-2
9.449686974E0,-2.618700266E-2,-1.598420553E-2,-4.542350769E-3
9.459849327E0,-1.224571466E-2,-5.943439901E-4,6.173229218E-2
9.470011681E0,-3.001689911E-3,6.909290329E-3,6.525897980E-2
9.480204552E0,2.065294981E-2,2.728365734E-2,1.704216003E-2
9.490366905E0,-4.056930542E-3,5.316103250E-2,1.490812302E-1
9.500529259E0,-1.203447580E-2,5.381263793E-2,9.189128876E-2
9.510691612E0,-3.556370735E-3,2.866389230E-2,-1.105403900E-1
9.520853966E0,2.260899544E-2,2.218783274E-2,-2.194719315E-1
9.531016319E0,4.545801878E-2,3.734007478E-2,-2.108592987E-1
9.541178673E0,4.815107584E-2,5.947522074E-2,-1.363582611E-1
9.551341026E0,2.871316671E-2,6.164310873E-2,-7.734107971E-2
9.561503380E0,6.503641605E-3,5.266343057E-2,-2.709388733E-3
9.571665733E0,-2.300274372E-2,4.334536567E-2,1.036415100E-1
9.581828087E0,-3.278112411E-2,4.447059333E-2,1.348886490E-1
9.591990440E0,-3.895467520E-2,4.121091962E-2,9.246349335E-2
9.602152794E0,-4.460632801E-3,7.214646041E-2,4.134654999E-2
9.612315147E0,7.725715637E-3,7.367211580E-2,3.128147125E-2
9.622477501E0,2.170729637E-2,8.045532554E-2,4.772186279E-3
9.632639854E0,1.598715782E-2,7.339175045E-2,7.068634033E-3
9.642802208E0,1.680672169E-2,5.978557095E-2,4.474544525E-2
9.652964561E0,1.035195589E-2,6.296704710E-2,7.222270966E-2
9.663126915E0,7.043480873E-3,5.370427668E-2,4.249572754E-2
9.673289268E0,6.978034973E-3,4.621027038E-2,1.600265503E-3
9.683451622E0,9.465217590E-5,2.673698962E-2,-1.959609985E-2
9.693613976E0,-4.450261593E-3,3.129459172E-2,-1.923465729E-2
9.703776329E0,-4.572629929E-3,1.962872967E-2,-3.072738647E-2
9.713938683E0,-9.623527527E-3,2.775427885E-2,-4.913806915E-2
9.724101036E0,-7.008314133E-4,2.480910718E-2,-4.364204407E-2
9.734263390E0,-8.518040180E-3,2.488762327E-2,-9.894371033E-3
9.744425743E0,-9.093284607E-3,1.586145535E-2,2.093696594E-2
9.754588097E0,-9.491562843E-3,9.199662134E-3,5.364990234E-2
9.764750450E0,-1.185870171E-2,2.220597118E-3,6.690311432E-2
9.774912804E0,-1.365798712E-2,4.070075229E-3,3.976631165E-2
9.785075157E0,-7.888138294E-3,7.595302537E-3,-1.048946381E-2
9.795237511E0,-2.177894115E-3,1.327951252E-2,-2.911567688E-2
9.805399864E0,1.507878304E-2,4.060567915E-2,-2.855491638E-2
9.815562218E0,1.298296452E-2,4.675938189E-2,-2.329444885E-2
9.825724571E0,2.236527205E-2,3.912231326E-2,-2.288341522E-2
9.835886925E0,2.187764645E-2,4.144096375E-2,-1.067256927E-2
9.846049278E0,1.660978794E-2,4.628670216E-2,1.554584503E-2
9.856211632E0,1.862460375E-2,5.081734061E-2,3.658580780E-2
9.866373985E0,1.122611761E-2,4.787476361E-2,4.072952271E-2
9.876536339E0,8.887708187E-3,5.636316538E-2,4.476356506E-2
9.886698692E0,2.173662186E-3,5.251148343E-2,1.327133179E-2
9.896891563E0,-6.540954113E-3,4.618757591E-2,-1.053428650E-2
9.907053917E0,-3.123283386E-3,4.513522983E-2,-3.392887115E-2
9.917216270E0,5.037963390E-3,2.560239658E-2,-6.635189056E-2
9.927378624E0,2.720594406E-2,3.548228741E-2,-2.726078033E-2
9.937540977E0,2.948898077E-2,2.903271094E-2,4.654121399E-2
9.947703331E0,3.357446194E-2,3.445260599E-2,9.058380127E-2
9.957865685E0,1.884973049E-2,3.915804625E-2,5.825519562E-2
9.968028038E0,-4.623591900E-3,4.531323910E-2,2.182292938E-2
9.978190392E0,-2.050036192E-2,5.341243371E-2,2.479553223E-4
9.988352745E0,-1.987838745E-2,5.649115890E-2,1.206874847E-2
9.998515099E0,-3.660196066E-2,5.246368423E-2,-2.378940582E-2
1.000867745E1,-2.853602171E-2,2.561685815E-2,-2.267274857E-1
1.001883981E1,-1.832664013E-3,1.070023701E-2,-2.674522400E-1
1.002900216E1,4.287928343E-2,2.213360183E-2,7.569885254E-2
1.003916451E1,8.083212376E-2,4.499040172E-2,3.620338440E-1
1.004932687E1,6.109613180E-2,5.334106460E-2,1.832695007E-1
1.005948922E1,-5.656355619E-2,4.013322294E-2,7.133483887E-2
1.006965157E1,-8.060652018E-2,4.398493096E-3,-1.499071121E-1
1.007981393E1,-4.347372055E-2,-3.497909755E-3,-2.701969147E-1
1.008997628E1,3.193140030E-3,-1.516366005E-2,-2.750082016E-1
1.010013863E1,4.886782169E-2,-7.104512304E-3,-1.141176224E-1
1.011030099E1,6.969475746E-2,1.376654766E-2,1.218433380E-1
1.012046334E1,3.982567787E-2,3.761590645E-2,2.496671677E-1
1.013062569E1,-2.463823557E-2,6.255732477E-2,2.312488556E-1
1.014078805E1,-7.307630777E-2,8.343536407E-2,1.635618210E-1
1.015095040E1,-8.699804544E-2,1.112770811E-1,6.405735016E-2
1.016111276E1,-6.512117386E-2,1.031476259E-1,-2.905368805E-2
1.017127511E1,-3.015631437E-2,9.952071309E-2,-1.041059494E-1
1.018143746E1,2.901256084E-2,1.015329361E-1,-1.307687759E-1
1.019159982E1,6.511354446E-2,7.848937809E-2,-1.144714355E-1
1.020176217E1,7.660830021E-2,5.820505321E-2,-2.519989014E-2
1.021192452E1,6.663113832E-2,3.872979432E-2,6.020450592E-2
1.022208688E1,4.089140892E-2,1.651022770E-2,7.083606720E-2
1.023224923E1,1.648747921E-2,1.185702346E-2,5.541801453E-2
1.024241158E1,-1.164442301E-2,9.645479731E-4,4.030323029E-2
1.025257394E1,-1.782912016E-2,-2.477364615E-2,-1.939392090E-2
1.026273629E1,-2.675741911E-2,-2.852742746E-2,-3.079700470E-2
1.027289864E1,-4.587239027E-2,-4.086458683E-2,-1.851177216E-2
1.028306100E1,-3.710591793E-2,-3.796589375E-2,7.681846619E-3
1.029322335E1,-2.881348133E-2,-2.282071672E-2,6.185245514E-2
1.030338570E1,-1.814210415E-2,1.511045173E-2,9.608840942E-2
1.031354806E1,1.197355986E-2,2.723470330E-2,9.910678864E-2
1.032371041E1,5.944079161E-2,4.937941208E-2,1.712608337E-2
1.033387276E1,6.381499767E-2,6.034954265E-2,8.317279816E-2
1.034403512E1,4.420566559E-2,5.854730308E-2,6.973838806E-2
1.035419747E1,4.540908337E-2,3.332665935E-2,-1.606826782E-1
1.036435983E1,4.274094105E-2,5.680790171E-3,-2.355403900E-1
1.037452218E1,4.808080196E-2,1.872004196E-2,-1.250963211E-1
1.038468453E1,3.788715601E-2,3.776632622E-2,-4.500102997E-2
1.039484689E1,2.785128355E-2,6.147624925E-2,1.255607605E-2
1.040500924E1,5.779027939E-3,7.434742153E-2,7.859039307E-2
1.041517159E1,-6.119728088E-3,8.290999383E-2,1.198139191E-1
1.042533395E1,-3.571391106E-2,7.750298828E-2,7.764148712E-2
1.043549630E1,-5.938184261E-2,6.630706787E-2,-1.098823547E-2
1.044565865E1,-5.186069012E-2,8.641535789E-2,-5.310153961E-2
1.045582101E1,-2.439284325E-2,9.077566862E-2,-6.396675110E-2
1.046598336E1,1.077657938E-2,6.826502830E-2,-5.115127563E-2
1.047614571E1,2.529090643E-2,6.383383274E-2,-5.465507507E-3
1.048630807E1,4.132598639E-2,4.554379731E-2,7.961273193E-2
1.049647042E1,5.701178312E-2,5.019102618E-2,1.347503662E-1
1.050663277E1,4.956203699E-2,3.411593661E-2,1.038894653E-1
1.051686152E1,2.697080374E-2,1.677585021E-2,-1.944541931E-3
1.052702387E1,8.111059666E-3,-1.279075071E-2,-6.799221039E-2
1.053718622E1,-7.866144180E-3,-1.531113684E-2,-5.726718903E-2
1.054734858E1,-2.878248692E-2,-2.376971021E-2,-1.925468445E-3
1.055751093E1,-2.867722511E-2,-2.177139744E-2,3.341197968E-2
1.056767328E1,-4.285609722E-2,-3.025669605E-3,6.751060486E-3
1.057783564E1,-4.948288202E-2,-8.098337799E-3,-4.067802429E-2
1.058799799E1,-3.706169128E-2,-1.065073535E-2,-6.598854065E-2
1.059819086E1,-2.252018452E-2,1.426823437E-3,-5.066299438E-2
1.060835322E1,-3.638565540E-3,-6.559342146E-4,-1.373291016E-4
1.061851557E1,1.987463236E-2,-2.787642181E-3,1.640319824E-2
1.062867792E1,3.161990643E-2,-2.658061683E-3,4.292488098E-3
1.063884028E1,3.655517101E-2,1.878660172E-2,-2.778053284E-3
1.064900263E1,1.784133911E-2,3.259695321E-2,-9.733200073E-3
1.065916498E1,6.648957729E-3,3.665556014E-2,-1.894855499E-2
1.066932734E1,-1.180672646E-2,5.263733864E-2,-2.566051483E-2
1.067948969E1,-8.609771729E-3,4.958112538E-2,-3.466892242E-2
1.068965204E1,-2.967834473E-3,5.162522942E-2,-1.741886139E-2
1.069981440E1,-2.397119999E-3,4.665344954E-2,-4.749298096E-4
1.070997675E1,7.534205914E-3,4.417128116E-2,1.848983765E-2
1.072013911E1,1.050263643E-2,6.058168411E-2,1.826190948E-2
1.073030146E1,1.339370012E-2,6.248124689E-2,2.041721344E-2
1.074046381E1,2.344685793E-2,5.461241305E-2,2.018737793E-2
1.075062616E1,1.929336786E-2,4.213561118E-2,-3.687858582E-3
1.076078852E1,1.077723503E-2,3.009586781E-2,-2.476024628E-2
1.077095087E1,1.224088669E-2,2.311591804E-2,-3.123950958E-2
1.078111323E1,1.347541809E-2,3.577269614E-2,7.296562195E-3
1.079127558E1,2.121543884E-2,4.121942073E-2,6.397247314E-2
1.080143793E1,3.997349739E-2,4.389905185E-2,7.710075378E-2
1.081160029E1,8.594572544E-3,3.882708400E-2,2.379798889E-2
1.082176264E1,-1.036912203E-2,4.080682248E-2,-1.429939270E-2
1.083192499E1,-3.170102835E-2,3.582429141E-2,2.155208588E-2
1.084208735E1,-2.979075909E-2,1.407939196E-2,7.312011719E-2
1.085224970E1,-4.467606544E-2,1.596491039E-2,2.435779572E-2
1.086241205E1,-4.776328802E-2,6.313681602E-3,-2.242317200E-1
1.087257441E1,4.412114620E-3,-5.799293518E-3,-3.356380463E-1
1.088273676E1,7.142245770E-2,-1.245121658E-2,1.372718811E-2
1.089289912E1,1.199520826E-1,2.206265926E-3,2.891855240E-1
1.090306147E1,7.246756554E-2,-2.293944359E-3,9.045886993E-2
1.091322382E1,-1.277214289E-2,-2.091382444E-2,4.871177673E-2
1.092338618E1,-6.692945957E-2,-4.821525514E-2,-8.237552643E-2
1.093354853E1,-6.619340181E-2,-3.478395939E-2,-1.684904099E-1
1.094371088E1,-2.838587761E-2,-2.745310962E-2,-1.938142776E-1
1.095387324E1,2.100419998E-2,4.728958011E-3,-1.761722565E-2
1.096403559E1,5.285507441E-2,4.079531133E-2,1.978836060E-1
1.097419794E1,5.609619617E-2,7.882720232E-2,2.110853195E-1
1.098436030E1,8.085370064E-3,1.283414513E-1,7.294750214E-2
1.099452265E1,-4.177528620E-2,1.435037106E-1,-5.330371857E-2
1.100468500E1,-6.124079227E-2,1.433365345E-1,-9.246349335E-2
1.101484736E1,-3.224962950E-2,1.270671785E-1,-6.726455688E-2
1.102500971E1,6.451487541E-3,9.520536661E-2,-4.260635376E-2
1.103517206E1,4.114240408E-2,5.879928172E-2,-4.163742065E-3
1.104533442E1,5.380511284E-2,4.489615560E-2,3.126716614E-2
1.105549677E1,5.977910757E-2,1.585006714E-2,8.265972137E-2
1.106565912E1,4.073619843E-2,-5.789399147E-3,1.072492599E-1
1.107582148E1,4.437029362E-3,-1.084734499E-2,7.709693909E-2
1.108598383E1,-1.356130838E-2,-3.771930933E-3,3.567504883E-2
1.109614618E1,-2.401310205E-2,-7.112994790E-3,1.157283783E-2
1.110630854E1,-3.007477522E-2,-1.973834634E-2,-7.479667664E-3
1.111650141E1,-2.278423309E-2,-3.156377375E-2,-9.706497192E-3
1.112666376E1,-2.595090866E-2,-4.281407595E-2,2.113151550E-2
1.113682612E1,-1.291483641E-2,-5.387941003E-2,3.952503204E-2
1.114698847E1,1.162886620E-4,-3.702834249E-2,4.349803925E-2
1.115715082E1,1.587200165E-2,-2.858537436E-2,5.444431305E-2
1.116731318E1,2.949917316E-2,1.150843501E-2,-2.230072021E-2
1.117747553E1,1.679939032E-2,4.992836714E-2,5.156707764E-2
1.118763788E1,-1.137775183E-2,6.819921732E-2,9.750175476E-2
1.119780024E1,-1.644492149E-4,5.091693997E-2,-1.006927490E-1
1.120796259E1,1.024734974E-2,2.603425086E-2,-2.359018326E-1
1.121812495E1,3.881478310E-2,2.017106116E-2,-2.011737823E-1
1.122828730E1,5.436635017E-2,5.144728720E-2,-1.339921951E-1
1.123844965E1,4.827773571E-2,5.473892391E-2,-4.199886322E-2
1.124861200E1,8.913516998E-3,5.787585676E-2,-2.250289917E-2
1.125877436E1,-1.294279099E-2,4.848910868E-2,6.284713745E-3
1.126893671E1,-3.205418587E-2,6.187339127E-2,5.808544159E-2
1.127909907E1,-2.949851751E-2,5.015122890E-2,8.069229126E-2
1.128926142E1,-1.686048508E-2,6.840090454E-2,6.512451172E-2
1.129942377E1,2.884697914E-2,6.447860599E-2,4.278945923E-2
1.130958613E1,6.614905596E-2,7.707713544E-2,3.492546082E-2
1.131974848E1,5.978506804E-2,7.271721959E-2,3.900909424E-2
1.132991083E1,2.945816517E-2,4.713869095E-2,4.057312012E-2
1.134007319E1,1.659929752E-3,5.248562992E-2,3.503608704E-2
1.135023554E1,-1.383399963E-2,5.012419820E-2,2.479553223E-2
1.136039789E1,-2.145349979E-2,3.575573117E-2,-2.539539337E-2
1.137056025E1,-1.642763615E-2,2.685181797E-3,-6.516742706E-2
1.138072260E1,1.010549068E-2,-1.051665843E-2,-4.041004181E-2
1.139088495E1,2.889591455E-2,-6.505191326E-3,2.170276642E-2
1.140104731E1,1.634722948E-2,-5.016796291E-3,4.725074768E-2
1.141120966E1,-7.593989372E-3,1.302221417E-2,3.454589844E-2
1.142137202E1,-4.284602404E-2,1.660186797E-2,-2.993679047E-2
1.143153437E1,-6.808829308E-2,2.754029632E-2,-8.854961395E-2
1.144169672E1,-7.191246748E-2,1.773861051E-2,-1.225471497E-1
1.145185908E1,-6.676894426E-2,1.140402257E-2,-9.217739105E-2
1.146202143E1,-2.401888371E-2,1.241363585E-3,-4.348754883E-2
1.147218378E1,2.987480164E-2,-1.360349357E-3,1.393222809E-2
1.148234614E1,6.670498848E-2,-9.181566536E-3,4.436397552E-2
1.149250849E1,7.968199253E-2,-1.215882599E-3,6.729221344E-2
1.150267084E1,7.188153267E-2,1.030608267E-2,7.799530029E-2
1.151283320E1,5.058038235E-2,2.541925013E-2,3.411102295E-2
1.152299555E1,2.535784245E-2,2.807464451E-2,-3.255271912E-2
1.153315790E1,-3.952324390E-3,3.330341727E-2,-6.492042542E-2
1.154332026E1,-2.341014147E-2,2.979176491E-2,-6.842041016E-2
1.155348261E1,-4.028505087E-2,2.708079666E-2,-3.878211975E-2
1.156364496E1,-2.871090174E-2,4.137788713E-2,6.858825684E-3
1.157380732E1,-1.226782799E-3,6.008955836E-2,5.646800995E-2
1.158396967E1,8.516132832E-3,7.795871794E-2,7.198810577E-2
1.159413202E1,2.057313919E-2,9.239853919E-2,1.639652252E-2
1.160429438E1,1.621633768E-2,9.462399781E-2,-3.819465637E-2
1.161445673E1,1.875156164E-2,7.594615221E-2,-2.566719055E-2
1.162461908E1,1.423537731E-3,5.575326458E-2,1.964187622E-2
1.163478144E1,-2.096670866E-2,3.412317485E-2,-4.251289368E-2
1.164494379E1,-2.435874939E-2,2.346702665E-2,-2.757434845E-1
1.165513666E1,-5.871951580E-3,6.175562739E-3,-2.586097717E-1
1.166529902E1,6.231647730E-2,9.878445417E-3,1.834640503E-1
1.167546137E1,1.127982736E-1,4.060694203E-2,3.876457214E-1
1.168562372E1,3.091526031E-2,4.622415453E-2,2.035970688E-1
1.169578608E1,-6.231904030E-2,1.558515057E-2,-1.733398438E-2
1.170594843E1,-7.647097111E-2,-2.032606676E-2,-1.897220612E-1
1.171611078E1,-3.506535292E-2,-4.217873141E-2,-2.834196091E-1
1.172627314E1,9.131371975E-3,-3.923057765E-2,-2.690095901E-1
1.173643549E1,4.292988777E-2,-4.287780821E-2,-6.804466248E-2
1.174659784E1,7.077413797E-2,-1.533893496E-2,1.860771179E-1
1.175676020E1,5.565959215E-2,2.109660953E-2,2.584362030E-1
1.176692255E1,1.667678356E-3,7.452929020E-2,1.949815750E-1
1.177708491E1,-5.281674862E-2,1.145030558E-1,8.308219910E-2
1.178724726E1,-8.230805397E-2,1.309860349E-1,-1.738452911E-2
1.179740961E1,-8.114475012E-2,1.337941885E-1,-7.361030579E-2
1.180757197E1,-4.825788736E-2,1.058930010E-1,-1.007041931E-1
1.181773432E1,4.060685635E-3,7.917408645E-2,-1.061220169E-1
1.182789667E1,5.201393366E-2,5.582617223E-2,-7.134342194E-2
1.183805903E1,7.503563166E-2,5.106237158E-2,7.766723633E-3
1.184822138E1,7.188457251E-2,2.515781112E-2,8.310794830E-2
1.185838373E1,4.380708933E-2,7.688225247E-3,1.028051376E-1
1.186854609E1,1.734155416E-2,2.400655113E-2,8.692646027E-2
1.187870844E1,-8.801221848E-4,2.636924386E-2,4.774284363E-2
1.188887079E1,-2.082365751E-2,1.336043794E-2,1.630306244E-2
1.189903315E1,-2.638149261E-2,-4.197441041E-3,-2.876186371E-2
1.190919550E1,-3.248155117E-2,-6.698980927E-3,-2.350997925E-2
1.191935786E1,-2.748185396E-2,-8.176330477E-3,-1.365566254E-2
1.192952021E1,-2.526527643E-2,5.193590187E-4,7.809638977E-3
1.193968256E1,-4.144310951E-3,2.106081694E-2,4.319190979E-2
1.194984492E1,3.333276510E-2,2.399704605E-2,2.331542969E-2
1.196000727E1,4.015558958E-2,4.028597474E-2,9.019851685E-3
1.197016962E1,1.294136047E-2,5.542794243E-2,1.316957474E-1
1.198033198E1,-1.823127270E-3,4.588254914E-2,7.017707825E-2
1.199049433E1,-9.448766708E-3,2.259480022E-2,-1.317777634E-1
1.200065668E1,1.951718330E-2,2.497866377E-2,-2.119121552E-1
1.201081904E1,4.923582077E-2,2.719041891E-2,-1.277704239E-1
1.202098139E1,4.900521040E-2,4.989604279E-2,-5.006694794E-2
1.203114374E1,4.161953926E-2,4.484418407E-2,-2.551746368E-2
1.204130610E1,2.932310104E-2,4.205782712E-2,4.350662231E-2
1.205146845E1,-1.146495342E-2,4.069387168E-2,7.584095001E-2
1.206163080E1,-5.558568239E-2,4.746039584E-2,4.615974426E-2
1.207182368E1,-7.285171747E-2,5.789569020E-2,-1.810073853E-3
1.208195551E1,-5.015224218E-2,6.535771489E-2,6.561279297E-4
1.209211786E1,-2.363258600E-2,7.287551463E-2,2.430629730E-2
1.210228022E1,2.326112986E-2,7.601940632E-2,3.091907501E-2
1.211244257E1,4.545652866E-2,6.993280351E-2,5.642604828E-2
1.212260493E1,4.350060225E-2,6.127687544E-2,9.322929382E-2
1.213276728E1,3.706318140E-2,5.678545311E-2,6.784629822E-2
1.214292963E1,1.978510618E-2,5.158333108E-2,5.226135254E-4
1.215312250E1,1.531744003E-2,3.894898668E-2,-3.489589691E-2
1.216328486E1,6.357967854E-3,2.919354290E-2,-4.367256165E-2
1.217344721E1,-4.852414131E-3,2.974447608E-2,-4.997539520E-2
1.218360956E1,-4.272818565E-3,1.708636060E-2,-2.779865265E-2
1.219377192E1,-1.609587669E-2,1.477184519E-2,-8.411407471E-3
1.220393427E1,-2.792608738E-2,2.714132890E-2,2.003479004E-2
1.221406611E1,-3.005886078E-2,2.749631554E-2,1.736259460E-2
1.222422846E1,-2.024179697E-2,1.829832420E-2,1.238346100E-2
1.223439081E1,-3.460347652E-3,1.363167912E-2,2.868461609E-2
1.224455317E1,1.125890017E-2,6.346020848E-3,2.588748932E-2
1.225471552E1,1.902168989E-2,1.079349592E-2,1.133251190E-2
1.226487787E1,7.788896561E-3,2.697845548E-2,-5.912780762E-4
1.227504023E1,5.972623825E-3,3.110792115E-2,-7.631301880E-3
1.228523310E1,-7.719218731E-3,3.765545040E-2,-5.081176758E-3
1.229539545E1,-4.948258400E-3,3.946221992E-2,2.078056335E-3
1.230555781E1,-2.265393734E-3,3.646380454E-2,-1.213169098E-2
1.231572016E1,-4.093647003E-3,4.768233746E-2,-1.662635803E-2
1.232588251E1,1.239895821E-3,5.629613623E-2,1.210594177E-2
1.233604487E1,2.074807882E-2,5.532621220E-2,9.601593018E-3
1.234620722E1,3.525316715E-2,6.141264364E-2,4.747390747E-3
1.235636957E1,2.147489786E-2,6.280607730E-2,-2.127265930E-2
1.236653193E1,1.772612333E-2,4.554637149E-2,-2.311134338E-2
1.237669428E1,4.868745804E-3,4.808655754E-2,-5.097389221E-2
1.238685663E1,-1.014637947E-2,6.084629893E-2,-4.051685333E-2
1.239701899E1,-1.591879129E-2,5.530563369E-2,2.652740479E-2
1.240718134E1,-1.778590679E-2,5.492173135E-2,9.466266632E-2
1.241734370E1,-1.778101921E-2,6.375615299E-2,9.774780273E-2
1.242750605E1,-1.514136791E-2,6.449538469E-2,4.635524750E-2
1.243766840E1,-7.378757000E-3,5.535422638E-2,7.019042969E-4
1.244783076E1,2.410888672E-3,4.646798596E-2,3.103256226E-3
1.245799311E1,6.346166134E-3,3.102036193E-2,2.664279938E-2
1.246815546E1,-9.149968624E-3,2.348562703E-2,-9.707260132E-2
1.247831782E1,-8.076488972E-3,5.711734295E-3,-2.654542923E-1
1.248848017E1,3.196436167E-2,4.909500480E-3,-1.753454208E-1
1.249864252E1,7.832825184E-2,3.420422226E-2,2.672481537E-1
1.250880488E1,1.137254238E-1,4.972162098E-2,2.712917328E-1
1.251896723E1,3.464663029E-2,3.174895421E-2,1.155424118E-1
1.252912958E1,-3.580862284E-2,9.177175350E-3,-2.618598938E-2
1.253929194E1,-3.337109089E-2,-2.552546561E-2,-1.958837509E-1
1.254945429E1,-2.904862165E-2,-2.490602620E-2,-2.397060394E-1
1.255961664E1,3.800094128E-3,-3.125735372E-2,-1.692037582E-1
1.256977900E1,1.899737120E-2,-5.106315017E-3,1.103305817E-2
1.257994135E1,1.411622763E-2,3.689816594E-2,1.549615860E-1
1.259010370E1,-2.414757013E-2,8.799312264E-2,1.640853882E-1
1.260026606E1,-7.579636574E-2,1.311253160E-1,9.516620636E-2
1.261042841E1,-8.395558596E-2,1.339855343E-1,1.790428162E-2
1.262059077E1,-7.096379995E-2,1.225894094E-1,-4.866218567E-2
1.263075312E1,-1.599460840E-2,1.060282364E-1,-8.572292328E-2
1.264091547E1,4.898953438E-2,7.601975650E-2,-8.203983307E-2
1.265110834E1,9.328806400E-2,6.368957460E-2,-6.903648376E-2
1.266124018E1,1.033750772E-1,2.266211808E-2,-1.836776733E-2
1.267143305E1,8.747392893E-2,1.577518508E-2,5.512619019E-2
1.268159540E1,3.497916460E-2,1.246744767E-2,1.108493805E-1
1.269175776E1,8.308053017E-3,-4.956208169E-3,1.042966843E-1
1.270192011E1,-1.217913628E-2,-1.504924893E-2,9.317874908E-2
1.271208246E1,-2.260178328E-2,-2.211026102E-2,6.562232971E-2
1.272224482E1,-1.869696379E-2,-2.759109437E-2,1.974487305E-2
1.273240717E1,-2.924758196E-2,-2.572237700E-2,-6.464004517E-3
1.274256952E1,-2.868163586E-2,-3.267142922E-2,-1.581573486E-2
1.275273188E1,-3.359073400E-2,-2.684555203E-2,-1.371383667E-3
1.276289423E1,-3.175634146E-2,-1.107431203E-2,3.880500793E-2
1.277305658E1,-1.818752289E-2,4.148729146E-3,6.411552429E-2
1.278321894E1,2.630770206E-2,2.508332580E-2,1.428604126E-3
1.279338129E1,4.197257757E-2,5.894331634E-2,5.369186401E-2
1.280354365E1,3.274852037E-2,7.926645875E-2,1.730480194E-1
1.281370600E1,3.930586576E-2,7.029235363E-2,-2.876663208E-2
1.282386835E1,6.038886309E-2,4.609577358E-2,-2.784566879E-1
1.283403071E1,6.914025545E-2,2.485679090E-2,-2.260131836E-1
1.284419306E1,5.889606476E-2,2.717390656E-2,-8.751869202E-2
1.285435541E1,1.044237614E-2,3.977155685E-2,-3.167343140E-2
1.286451777E1,-2.782571316E-2,4.242734611E-2,1.149749756E-2
1.287468012E1,-4.675734043E-2,5.563826859E-2,5.621719360E-2
1.288484247E1,-6.983506680E-2,5.736181140E-2,8.365631104E-2
1.289500483E1,-5.632990599E-2,6.700940430E-2,5.867671967E-2
1.290516718E1,-1.888650656E-2,5.951516330E-2,1.759433746E-2
1.291532953E1,3.416728973E-2,7.855411619E-2,1.739501953E-2
1.292549189E1,7.137537003E-2,7.689550519E-2,3.131961823E-2
1.293565424E1,7.159888744E-2,6.649928540E-2,4.728698730E-2
1.294581660E1,5.239725113E-2,4.226619750E-2,6.299400330E-2
1.295597895E1,2.635401487E-2,4.401576519E-2,7.134056091E-2
1.296614130E1,-1.406908035E-3,3.288109601E-2,5.108547211E-2
1.297630366E1,-2.107334137E-2,9.119607508E-3,-4.239082336E-3
1.298646601E1,-4.203516245E-2,-2.471178770E-3,-6.323146820E-2
1.299662836E1,-2.698516846E-2,-1.492813230E-3,-8.811187744E-2
1.300679072E1,-2.902537584E-2,5.174860358E-3,-4.638099670E-2
1.301695307E1,-2.458560467E-2,1.255268604E-2,1.576137543E-2
1.302711542E1,-2.072662115E-2,3.490157425E-3,2.720260620E-2
1.303727778E1,-1.227498055E-2,-7.761791348E-4,1.245689392E-2
1.304744013E1,-1.789879799E-2,-2.803146839E-3,-1.384449005E-2
1.305760248E1,-4.155814648E-3,-2.543732524E-3,-2.784156799E-2
1.306776484E1,5.105674267E-3,-4.536315799E-3,-3.209877014E-2
1.307792719E1,1.695376635E-2,1.046791673E-3,-2.680778503E-2
1.308808954E1,2.642810345E-2,6.998628378E-3,-2.627086639E-2
1.309825190E1,2.149796486E-2,1.555690169E-2,-2.819538116E-2
1.310841425E1,1.186686754E-2,2.655500174E-2,5.512237549E-3
1.311857661E1,2.103573084E-2,1.825846732E-2,1.014995575E-2
1.312873896E1,1.617103815E-2,2.396017313E-2,2.948760986E-3
1.313890131E1,3.043699265E-2,3.176799417E-2,5.998611450E-4
1.314906367E1,2.313762903E-2,4.381237924E-2,-1.825714111E-2
1.315922602E1,1.624023914E-2,4.835179448E-2,-2.498817444E-2
1.316938837E1,9.880721569E-3,4.813173413E-2,-2.916049957E-2
1.317958124E1,-5.790948868E-3,3.855168819E-2,-1.435565948E-2
1.318974360E1,-1.626217365E-2,3.652206063E-2,-1.156520844E-2
1.319990595E1,-7.908165455E-3,3.462140262E-2,4.553413391E-2
1.321006830E1,4.248201847E-3,4.680712521E-2,8.972263336E-2
1.322023066E1,1.106858253E-2,5.581963062E-2,7.870769501E-2
1.323036249E1,3.705978394E-3,6.651031971E-2,-3.016471863E-3
1.324052485E1,-1.065325737E-2,8.189515769E-2,-4.065036774E-2
1.325071772E1,-8.677840233E-3,7.870200276E-2,1.687431335E-2
1.326084955E1,-1.477622986E-2,5.906081200E-2,5.431270599E-2
1.327101191E1,-3.011775017E-2,3.251723945E-2,-4.854202271E-2
1.328117426E1,-3.065466881E-2,2.835932374E-2,-2.981700897E-1
1.329133662E1,1.649504900E-2,1.241709292E-2,-2.875328064E-1
1.330149897E1,9.109067917E-2,1.047573984E-2,2.189807892E-1
1.331169184E1,1.235863566E-1,2.050459385E-3,3.018188477E-1
1.332185419E1,4.633182287E-2,-1.662522554E-2,1.006126404E-1
1.333201655E1,-5.228304863E-2,-4.005828500E-2,1.375865936E-2
1.334217890E1,-6.027340889E-2,-4.316340387E-2,-1.096248627E-1
1.335234125E1,-5.663126707E-2,-3.116782010E-2,-2.070598602E-1
1.336250361E1,-1.625251770E-2,-7.743522525E-3,-1.842937469E-1
1.337266596E1,3.745388985E-2,9.701311588E-3,2.954673767E-2
1.338282831E1,5.961775780E-2,5.924470723E-2,2.252607346E-1
1.339299067E1,3.963351250E-2,8.899527788E-2,1.765384674E-1
1.340315302E1,-1.259940863E-2,1.066214740E-1,3.547668457E-3
1.341331537E1,-4.571938515E-2,1.286234260E-1,-1.121244431E-1
1.342347773E1,-6.080353260E-2,1.262255907E-1,-1.148881912E-1
1.343364008E1,-4.434162378E-2,1.103188843E-1,-7.276248932E-2
1.344380244E1,-1.204252243E-3,8.081637323E-2,-7.866859436E-3
1.345396479E1,4.761099815E-2,4.848662019E-2,2.996635437E-2
1.346412714E1,6.500613689E-2,2.331088483E-2,6.242847443E-2
1.347428950E1,6.191164255E-2,1.813159883E-2,7.321834564E-2
1.348445185E1,3.662121296E-2,1.056680083E-2,6.014823914E-2
1.349461420E1,7.975101471E-3,1.283913851E-2,2.612495422E-2
1.350477656E1,-2.919888496E-2,6.824433804E-3,1.628303528E-2
1.351493891E1,-3.993135691E-2,6.939321756E-4,6.544113159E-3
1.352510126E1,-2.987474203E-2,-1.450332999E-2,-1.953220367E-2
1.353526362E1,-2.546381950E-2,-3.137291968E-2,1.148509979E-2
1.354542597E1,-2.843618393E-3,-3.129300475E-2,5.141925812E-2
1.355558832E1,1.227945089E-2,-2.225556970E-2,6.219387054E-2
1.356575068E1,2.304255962E-2,-2.121135592E-2,5.390548706E-2
1.357591303E1,2.710425854E-2,1.449222863E-2,2.447319031E-2
1.358607538E1,4.564613104E-2,3.469094634E-2,-7.274532318E-2
1.359623774E1,2.015107870E-2,7.564836740E-2,6.316184998E-2
1.360640009E1,8.128225803E-3,7.330062985E-2,6.148719788E-2
1.361656245E1,1.474475861E-2,3.378821909E-2,-1.288347244E-1
1.362672480E1,4.157441854E-2,-1.107245684E-3,-1.878471375E-1
1.363688715E1,6.496316195E-2,1.577690244E-2,-9.479141235E-2
1.364704950E1,5.225926638E-2,3.533013165E-2,-1.752758026E-2
1.365721186E1,2.315342426E-3,3.524754941E-2,1.818847656E-2
1.366737421E1,-2.757227421E-2,3.645612299E-2,1.792716980E-2
1.367756708E1,-5.470025539E-2,4.143001139E-2,3.431129456E-2
1.368772944E1,-6.512135267E-2,5.966383219E-2,4.078006744E-2
1.369789179E1,-4.919147491E-2,6.508937478E-2,3.060722351E-2
1.370805414E1,-9.947478771E-3,7.257850468E-2,2.063083649E-2
1.371821650E1,4.230797291E-2,7.512168586E-2,2.264404297E-2
1.372837885E1,7.198351622E-2,5.877281725E-2,2.452278137E-2
1.373854120E1,6.083971262E-2,5.892431736E-2,4.051208496E-2
1.374870356E1,3.798186779E-2,4.906563461E-2,4.922294617E-2
1.375886591E1,1.304501295E-2,3.156065941E-2,5.777835846E-2
1.376902827E1,-6.417036057E-3,2.770318091E-2,1.887512207E-2
1.377919062E1,-3.680938482E-2,2.353830636E-2,-3.588962555E-2
1.378935297E1,-2.863097191E-2,1.972410083E-2,-5.894470215E-2
1.379951533E1,-1.613247395E-2,6.892189384E-3,-4.384517670E-2
1.380967768E1,-6.557524204E-3,9.031727910E-3,-1.480484009E-2
1.381984003E1,-2.345263958E-3,6.537780166E-3,1.131057739E-2
1.383000239E1,-2.873361111E-3,1.122527570E-2,-1.027011871E-2
1.384016474E1,-1.943260431E-2,4.336796701E-3,-5.275249481E-2
1.385032709E1,-1.435053349E-2,4.782840610E-3,-5.185985565E-2
1.386048945E1,-1.662230492E-2,-5.982153118E-3,-4.155921936E-2
1.387065180E1,-2.095133066E-2,-1.141963899E-2,-2.667999268E-2
1.388081415E1,-1.546865702E-2,-1.163066179E-2,2.183914185E-3
1.389097651E1,-5.216538906E-3,6.952576339E-3,3.054332733E-2
1.390113886E1,9.865999222E-3,2.018173039E-2,4.657840729E-2
1.391130121E1,2.727526426E-2,3.017256409E-2,2.218627930E-2
1.392146357E1,1.638811827E-2,4.422566295E-2,-6.546020508E-3
1.393162592E1,2.485907078E-2,5.085180700E-2,-5.127239227E-2
1.394178828E1,1.926064491E-2,3.634659946E-2,-8.337211609E-2
1.395195063E1,1.587575674E-2,3.684236854E-2,-7.005500793E-2
1.396211298E1,-1.792013645E-3,3.566340357E-2,-3.800678253E-2
1.397227534E1,-1.261568069E-2,4.912205786E-2,3.133487701E-2
1.398243769E1,4.344701767E-3,6.426917762E-2,7.567405701E-2
1.399260004E1,6.858170033E-3,6.887935102E-2,4.596138000E-2
1.400276240E1,2.699196339E-3,6.817847490E-2,1.216983795E-2
1.401292475E1,-5.978047848E-3,6.961859763E-2,4.981040955E-3
1.402308710E1,-8.046686649E-3,6.897588074E-2,2.498626709E-3
1.403324946E1,-3.434228897E-2,6.170964614E-2,-3.785991669E-2
1.404341181E1,-4.223948717E-2,5.094161630E-2,-2.737436295E-1
1.405357416E1,3.085136414E-3,3.382669017E-2,-3.251008987E-1
1.406373652E1,7.271730900E-2,3.633061051E-2,9.947109222E-2
1.407389887E1,1.431685686E-1,4.803581536E-2,4.021015167E-1
1.408406122E1,8.200079203E-2,4.495918006E-2,2.745285034E-1
1.409422358E1,-4.485952854E-2,1.496835612E-2,4.298305511E-2
1.410438593E1,-8.686906099E-2,-2.356753126E-2,-1.609888077E-1
1.411454828E1,-6.809812784E-2,-3.457895666E-2,-2.574729919E-1
1.412471064E1,-1.788961887E-2,-5.691561103E-2,-2.836904526E-1
1.413487299E1,4.357969761E-2,-3.581629694E-2,-1.344051361E-1
1.414503534E1,7.229179144E-2,-4.454452544E-3,1.114692688E-1
1.415519770E1,7.834553719E-2,2.722411603E-2,2.300310135E-1
1.416536005E1,2.800786495E-2,6.223694980E-2,2.001819611E-1
1.417552241E1,-4.677963257E-2,9.843722731E-2,1.188945770E-1
1.418568476E1,-8.687913418E-2,1.132358834E-1,3.902816772E-2
1.419584711E1,-8.618760109E-2,1.066733152E-1,-3.242206573E-2
1.420600947E1,-5.795937777E-2,1.067009121E-1,-8.858776093E-2
1.421617182E1,-5.323588848E-3,1.048464254E-1,-1.084098816E-1
1.422633417E1,4.090231657E-2,8.465540409E-2,-1.066865921E-1
1.423649653E1,5.501985550E-2,6.474523246E-2,-5.294609070E-2
1.424665888E1,4.743427038E-2,3.899217397E-2,2.574539185E-2
1.425682123E1,4.040741920E-2,1.537643466E-2,7.712841034E-2
1.426698359E1,3.676128387E-2,1.440041140E-2,7.821369171E-2
1.427714594E1,1.727104187E-2,-4.804367200E-5,8.165359497E-2
1.428730829E1,8.479356766E-4,7.237577811E-4,7.322311401E-2
1.429747065E1,-1.757812500E-2,-8.757647127E-3,3.657245636E-2
1.430763300E1,-2.153593302E-2,-1.581351459E-2,-4.229545593E-3
1.431779536E1,-3.525668383E-2,-8.077264763E-3,-2.305793762E-2
1.432795771E1,-3.007745743E-2,-1.156673953E-2,-1.358032227E-3
1.433812006E1,-1.488208771E-3,-7.443051785E-3,3.178787231E-2
1.434831293E1,1.239162683E-2,-1.186074689E-3,2.402305603E-2
1.435847529E1,2.647060156E-2,3.275068104E-2,7.320404053E-3
1.436863764E1,3.932237625E-3,5.827804655E-2,1.395301819E-1
1.437879999E1,-2.050083876E-2,5.386035889E-2,1.013956070E-1
1.438896235E1,-9.405732155E-3,4.018134624E-2,-1.224126816E-1
1.439912470E1,1.902830601E-2,3.757265583E-2,-2.263212204E-1
1.440928705E1,4.353731871E-2,4.412859306E-2,-1.325492859E-1
1.441944941E1,5.718803406E-2,4.512449354E-2,-5.002975464E-2
1.442961176E1,5.172860622E-2,4.006174579E-2,-2.319145203E-2
1.443977412E1,3.405976295E-2,5.406536907E-2,3.389739990E-2
1.444993647E1,-2.273440361E-3,5.044914037E-2,7.339477539E-2
1.446009882E1,-4.426908493E-2,4.554807022E-2,4.851627350E-2
1.447026118E1,-4.967379570E-2,5.870363861E-2,5.270957947E-3
1.448042353E1,-4.128867388E-2,7.372879982E-2,7.621765137E-3
1.449058588E1,-1.470440626E-2,6.983891875E-2,1.690864563E-2
1.450074824E1,2.035915852E-2,5.700199306E-2,4.259681702E-2
1.451091059E1,4.484939575E-2,4.927149042E-2,7.725524902E-2
1.452107294E1,4.262578487E-2,4.847445339E-2,9.947490692E-2
1.453123530E1,3.617209196E-2,4.670959711E-2,9.293460846E-2
1.454139765E1,2.609390020E-2,4.402579367E-2,2.752113342E-2
1.455156000E1,7.487595081E-3,2.910805494E-2,-3.191566467E-2
1.456172236E1,-1.081073284E-2,1.707279682E-2,-4.305744171E-2
1.457188471E1,-8.053541183E-3,1.142319292E-3,-3.519058228E-2
1.458204706E1,-2.008503675E-2,7.358614355E-3,-1.809501648E-2
1.459220942E1,-1.106691360E-2,1.662788540E-2,-6.056785583E-3
1.460237177E1,-2.066731453E-3,2.152331173E-2,-8.293151855E-3
1.461253412E1,-2.571225166E-3,2.193770930E-2,-5.863189697E-3
1.462269648E1,-3.749728203E-4,3.416961432E-2,1.076602936E-2
1.463285883E1,6.741285324E-3,2.252452075E-2,2.476024628E-2
1.464302118E1,-4.826843739E-3,1.771304384E-2,2.667617798E-2
1.465318354E1,-1.103484631E-2,2.004032582E-2,4.965782166E-3
1.466334589E1,-2.182793617E-2,3.180096671E-2,-4.477500916E-3
1.467350824E1,-1.610380411E-2,3.865490481E-2,-1.856327057E-2
1.468367060E1,1.475453377E-3,4.587176815E-2,-4.186058044E-2
1.469383295E1,1.390546560E-2,5.366067588E-2,-4.582881927E-2
1.470399531E1,7.019281387E-3,6.196176633E-2,-3.554058075E-2
1.471415766E1,2.257883549E-3,5.385274440E-2,2.882003784E-3
1.472432001E1,-2.471506596E-3,4.816546291E-2,2.165794373E-2
1.473448237E1,2.332329750E-3,3.493354097E-2,4.733371735E-2
1.474464472E1,1.676201820E-2,3.067395836E-2,6.308650970E-2
1.475480707E1,1.267945766E-2,3.276680782E-2,2.899074554E-2
1.476496943E1,9.437978268E-3,4.172199965E-2,-1.388454437E-2
1.477513178E1,-4.538893700E-4,3.904251382E-2,-3.709220886E-2
1.478532465E1,-8.052170277E-3,4.691327736E-2,-1.734733582E-2
1.479545649E1,-4.637122154E-3,5.803029239E-2,3.506469727E-2
1.480564936E1,-1.140052080E-2,6.011891738E-2,4.860496521E-2
1.481581171E1,-8.648395538E-3,7.428801060E-2,1.230335236E-2
1.482597407E1,3.734409809E-3,6.958796084E-2,-2.798175812E-2
1.483613642E1,6.240546703E-3,5.338454619E-2,8.974075317E-4
1.484629877E1,-2.780359983E-2,3.995750844E-2,4.334163666E-2
1.485646113E1,-3.800338507E-2,2.919702232E-2,-5.467319489E-2
1.486662348E1,-3.417956829E-2,1.963618584E-2,-2.451248169E-1
1.487678583E1,1.595163345E-2,-4.159745760E-3,-1.813297272E-1
1.488694819E1,7.014733553E-2,1.902957074E-2,2.545642853E-1
1.489711054E1,1.105066538E-1,2.861895785E-2,2.895336151E-1
1.490727289E1,3.839462996E-2,2.153564245E-2,1.003665924E-1
1.491743525E1,-3.238785267E-2,-4.340195097E-3,-4.337978363E-2
1.492759760E1,-4.051393270E-2,-3.793139756E-2,-2.104816437E-1
1.493775995E1,-2.770256996E-2,-4.582963884E-2,-2.446784973E-1
1.494792231E1,4.370391369E-3,-3.022810817E-2,-1.576719284E-1
1.495808466E1,4.050517082E-2,-6.620936096E-3,3.424263000E-2
1.496824702E1,5.221706629E-2,3.204572946E-2,1.825218201E-1
1.497840937E1,3.311342001E-2,8.899365366E-2,1.723155975E-1
1.498857172E1,-3.473204374E-2,1.164800078E-1,1.033439636E-1
1.499873408E1,-6.841737032E-2,1.302266568E-1,-3.242492676E-5
1.500889643E1,-9.492176771E-2,1.348884404E-1,-8.272647858E-2
1.501905878E1,-6.541329622E-2,1.230246723E-1,-1.310091019E-1
1.502922114E1,-2.836561203E-2,9.334444255E-2,-1.029100418E-1
1.503938349E1,3.062450886E-2,6.436187029E-2,-4.469776154E-2
1.504954584E1,6.715053320E-2,3.718003258E-2,-3.994941711E-3
1.505970820E1,7.524067163E-2,1.019207388E-2,7.400798798E-2
1.506987055E1,7.231444120E-2,3.140710294E-3,1.293401718E-1
1.508003290E1,3.514969349E-2,-1.710131764E-3,1.271438599E-1
1.509019526E1,2.194225788E-3,-4.075944424E-3,8.014297485E-2
1.510035761E1,-3.433376551E-2,-1.240104437E-2,1.987838745E-2
1.511051996E1,-3.028637171E-2,-1.361696422E-2,-2.290439606E-2
1.512068232E1,-4.604637623E-2,-1.654440165E-2,-1.777267456E-2
1.513084467E1,-4.579335451E-2,-2.803329378E-2,-1.037597656E-2
1.514100702E1,-3.422874212E-2,-2.219270915E-2,1.336193085E-2
1.515116938E1,-2.290117741E-2,-2.820818126E-2,5.092239380E-2
1.516133173E1,2.722561359E-3,2.936810255E-3,6.892490387E-2
1.517149408E1,3.337717056E-2,3.247168660E-2,-1.515388489E-2
1.518165644E1,4.008406401E-2,6.066172570E-2,3.742885590E-2
1.519181879E1,1.938807964E-2,8.306725323E-2,1.381864548E-1
1.520198115E1,2.356469631E-2,6.448015571E-2,-2.756595612E-2
1.521214350E1,3.709650040E-2,2.141767740E-2,-2.465496063E-1
1.522230585E1,5.731630325E-2,1.889285445E-2,-1.710548401E-1
1.523246821E1,6.135296822E-2,2.493737638E-2,-2.401924133E-2
1.524263056E1,3.464108706E-2,2.412214130E-2,1.177501678E-2
1.525279291E1,8.560657501E-3,4.372555763E-2,3.294563293E-2
1.526295527E1,-7.910430431E-3,5.446358770E-2,4.657363892E-2
1.527311762E1,-4.981130362E-2,7.316922396E-2,2.682685852E-2
1.528327997E1,-6.483602524E-2,7.705137134E-2,-3.977108002E-2
1.529344233E1,-4.204082489E-2,8.602241427E-2,-7.445430756E-2
1.530360468E1,-1.516580582E-3,8.195576817E-2,-3.059959412E-2
1.531376703E1,3.251028061E-2,6.007650495E-2,3.364562988E-2
1.532392939E1,6.545263529E-2,5.061350763E-2,8.019256592E-2
1.533409174E1,7.202094793E-2,3.827857971E-2,9.061050415E-2
1.534425410E1,6.012320518E-2,3.454071283E-2,9.847450256E-2
1.535441645E1,3.013968468E-2,4.369127005E-2,6.840133667E-2
1.536457880E1,-8.309781551E-3,2.097541094E-2,-8.431434631E-3
1.537474116E1,-2.914988995E-2,1.508111507E-2,-8.627414703E-2
1.538493403E1,-3.555923700E-2,1.041841507E-2,-1.036367416E-1
1.539509638E1,-3.780037165E-2,-2.102069557E-3,-6.171894073E-2
1.540525873E1,-2.182453871E-2,1.505436748E-2,-1.820182800E-2
1.541542109E1,-1.825994253E-2,1.805958152E-2,7.955551147E-3
1.542558344E1,-1.478654146E-2,9.302571416E-3,1.246738434E-2
1.543574579E1,-6.416022778E-3,2.752281725E-3,1.929855347E-2
1.544590815E1,-9.444892406E-3,-6.460577250E-3,1.415252686E-2
1.545607050E1,-4.752814770E-3,-1.812675595E-2,-9.743690491E-3
1.546623286E1,2.824008465E-3,-3.381326795E-3,-2.370738983E-2
1.547639521E1,1.754081249E-2,1.152302325E-2,-2.558898926E-2
1.548655756E1,1.757347584E-2,2.885442972E-2,-1.323032379E-2
1.549671992E1,1.021569967E-2,3.649827838E-2,1.256942749E-3
1.550688227E1,5.270898342E-3,4.639439285E-2,1.546669006E-2
1.551704462E1,-1.733005047E-3,4.153779149E-2,1.768207550E-2
1.552720698E1,8.189499378E-3,4.588316381E-2,1.742267609E-2
1.553736933E1,8.774042130E-3,4.274848104E-2,5.369186401E-3
1.554753168E1,5.091309547E-3,4.664963484E-2,-3.004074097E-2
1.555769404E1,-5.403041840E-3,3.163133562E-2,-4.592418671E-2
1.556785639E1,-1.096498966E-2,4.312260449E-2,-4.025268555E-2
1.557801874E1,-1.415061951E-2,5.723878741E-2,-2.759552002E-2
1.558818110E1,-1.323986053E-2,4.994912446E-2,1.081466675E-2
1.559834345E1,-1.233279705E-3,4.744407535E-2,5.321025848E-2
1.560850580E1,7.873833179E-3,6.336919963E-2,5.941009521E-2
1.561866816E1,2.815723419E-3,6.439344585E-2,6.470680237E-3
1.562883051E1,5.194544792E-4,5.589707196E-2,6.487846375E-3
1.563899286E1,7.485508919E-3,5.003601313E-2,6.075859070E-2
1.564915522E1,-1.702541113E-2,3.223547339E-2,5.958080292E-2
1.565931757E1,-3.839939833E-2,2.405042946E-2,-1.189632416E-1
1.566947993E1,-2.816605568E-2,1.498699188E-2,-3.506031036E-1
1.567964228E1,2.620810270E-2,-1.757144928E-4,-2.279624939E-1
1.568980463E1,8.780020475E-2,5.456477404E-3,2.890300751E-1
1.569996699E1,1.037153006E-1,-2.957299352E-3,2.527112961E-1
1.571012934E1,2.016460896E-2,-2.175994217E-2,1.067848206E-1
1.572029169E1,-4.313868284E-2,-4.572601616E-2,-6.331443787E-3
1.573045405E1,-5.327820778E-2,-6.122970581E-2,-1.363925934E-1
1.574061640E1,-4.189461470E-2,-5.189359188E-2,-2.049379349E-1
1.575077875E1,-1.544088125E-2,-3.363390267E-2,-1.444253922E-1
1.576094111E1,3.396934271E-2,1.887127757E-3,7.805252075E-2
1.577110346E1,6.123793125E-2,4.529157281E-2,2.422037125E-1
1.578126581E1,4.378104210E-2,9.961353242E-2,1.412057877E-1
1.579142817E1,-6.358206272E-3,1.255045682E-1,-4.533386230E-2
1.580162104E1,-3.546077013E-2,1.328798831E-1,-1.294126511E-1
1.581178339E1,-3.266453743E-2,1.143071353E-1,-1.130390167E-1
1.582194574E1,-5.444586277E-3,1.037656516E-1,-4.978466034E-2
1.583210810E1,3.438466787E-2,7.680027187E-2,7.645606995E-3
1.584227045E1,6.150794029E-2,4.390448332E-2,4.755115509E-2
1.585243281E1,5.572241545E-2,1.050893962E-2,7.031345367E-2
1.586259516E1,3.215479851E-2,-3.451690078E-3,7.380485535E-2
1.587275751E1,-1.125675440E-2,-1.119717956E-3,6.542396545E-2
1.588291987E1,-3.901541233E-2,-1.290446520E-2,3.830814362E-2
1.589308222E1,-3.273963928E-2,-1.848271489E-2,-1.878738403E-4
1.590324457E1,-2.462852001E-2,-9.740844369E-3,-2.854442596E-2
1.591340693E1,-7.948637009E-3,-2.630178630E-2,-2.576637268E-2
1.592356928E1,7.808208466E-3,-3.248126805E-2,5.254745483E-4
1.593373163E1,-5.438446999E-3,-2.419668436E-2,1.927280426E-2
1.594389399E1,-4.145264626E-3,3.762692213E-4,1.884460449E-2
1.595405634E1,-2.274453640E-3,1.669053733E-2,3.500652313E-2
1.596421870E1,1.431930065E-2,3.444397449E-2,1.764965057E-2
1.597438105E1,2.626103163E-2,5.832445621E-2,1.765346527E-2
1.598454340E1,1.312428713E-2,8.348965645E-2,1.423702240E-1
1.599470576E1,9.781956673E-3,7.018570602E-2,1.905727386E-2
1.600486811E1,-3.355324268E-3,4.163052142E-2,-2.057056427E-1
1.601503046E1,5.447268486E-4,2.778433263E-2,-2.493381500E-1
1.602519282E1,1.483100653E-2,3.776231408E-2,-1.647844315E-1
1.603535517E1,1.410448551E-2,5.359789729E-2,-7.689094543E-2
1.604551752E1,3.588318825E-3,4.097194970E-2,-4.827499390E-3
1.605567988E1,5.693435669E-4,2.753269672E-2,3.544712067E-2
1.606584223E1,-4.469811916E-3,2.946947515E-2,1.034479141E-1
1.607600458E1,3.034889698E-3,2.742777765E-2,1.206407547E-1
1.608616694E1,1.368200779E-2,4.314492643E-2,9.974193573E-2
1.609632929E1,5.434811115E-3,4.400911927E-2,6.269073486E-2
1.610649164E1,1.576870680E-2,4.252254963E-2,4.516506195E-2
1.611665400E1,1.353466511E-2,4.851467907E-2,2.072906494E-2
1.612681635E1,-1.113891602E-3,4.315970838E-2,1.562309265E-2
1.613697870E1,3.671050072E-4,4.283380508E-2,3.419017792E-2
1.614714106E1,1.559853554E-3,3.244678676E-2,3.582954407E-2
1.615730341E1,5.519628525E-3,3.098571301E-2,-3.738403320E-4
1.616746576E1,1.224488020E-2,1.505284756E-2,-3.352069855E-2
1.617762812E1,1.686960459E-2,8.795320988E-3,-5.660247803E-2
1.618779047E1,1.923900843E-2,7.704690099E-3,-4.623794556E-2
1.619795282E1,1.175302267E-2,1.172725111E-2,-2.656650543E-2
1.620811518E1,1.578390598E-3,2.778002620E-2,-7.348060608E-3
1.621827753E1,-1.561039686E-2,2.479802072E-2,-2.155399323E-2
1.622843989E1,-2.045619488E-2,2.944510430E-2,-4.018497467E-2
1.623860224E1,-2.980035543E-2,1.539035141E-2,-5.605411530E-2
1.624876459E1,-2.485662699E-2,2.095296979E-2,-4.565238953E-2
1.625892695E1,-1.521378756E-2,8.362904191E-4,-2.597618103E-2
1.626908930E1,-5.456209183E-3,7.127471268E-3,1.227474213E-2
1.627925165E1,4.470705986E-3,-6.135143340E-3,3.812217712E-2
1.628941401E1,1.195234060E-2,8.474178612E-3,6.117057800E-2
1.629957636E1,1.938992739E-2,3.836618364E-2,5.308437347E-2
1.630973871E1,2.965706587E-2,3.421853483E-2,-4.569053650E-3
1.631990107E1,4.257744551E-2,5.378666520E-2,-8.946228027E-2
1.633006342E1,3.181034327E-2,6.195612997E-2,-1.161584854E-1
1.634022578E1,1.157104969E-2,4.255382717E-2,-7.624626160E-2
1.635038813E1,-1.466631889E-3,3.382879496E-2,-8.727073669E-3
1.636055048E1,-7.538557053E-3,2.765990049E-2,6.712341309E-2
1.637071284E1,-2.127647400E-2,4.197900742E-2,1.179609299E-1
1.638087519E1,-2.279162407E-2,6.179051846E-2,9.231758118E-2
1.639103754E1,-2.825492620E-2,6.371271610E-2,2.701473236E-2
1.640123041E1,-1.455295086E-2,7.248277962E-2,-1.348304749E-2
1.641139277E1,-4.299163818E-3,8.160266280E-2,9.813308716E-4
1.642155512E1,-1.399850845E-2,6.774359941E-2,-2.752685547E-2
1.643171747E1,-2.268713713E-2,4.861081392E-2,-2.494173050E-1
1.644187983E1,-2.313315868E-3,1.603121683E-2,-3.439741135E-1
1.645204218E1,6.462556124E-2,1.309886947E-2,5.740165710E-2
1.646220453E1,1.205180287E-1,2.901515737E-2,4.031810760E-1
1.647236689E1,7.786291838E-2,3.457412869E-2,2.377347946E-1
1.648252924E1,-4.246032238E-2,1.755832508E-2,5.395507812E-2
1.649269160E1,-8.321160078E-2,-2.021882311E-2,-1.480484009E-1
1.650285395E1,-6.787317991E-2,-3.335737437E-2,-2.518882751E-1
1.651301630E1,-6.701946259E-3,-3.910713270E-2,-2.522554398E-1
1.652317866E1,5.131304264E-2,-4.687353969E-2,-1.083126068E-1
1.653334101E1,9.387964010E-2,-2.043439820E-2,1.276092529E-1
1.654350336E1,1.048412323E-1,2.284898981E-2,2.388353348E-1
1.655366572E1,4.818582535E-2,6.941669434E-2,1.852111816E-1
1.656382807E1,-3.744101524E-2,1.147746146E-1,8.065032959E-2
1.657399042E1,-9.340411425E-2,1.156878918E-1,-7.958412170E-3
1.658415278E1,-1.089923382E-1,1.267808825E-1,-7.153701782E-2
1.659431513E1,-7.381284237E-2,1.116923839E-1,-9.399509430E-2
1.660447748E1,-1.005613804E-2,1.093355566E-1,-9.012603760E-2
1.661463984E1,3.525853157E-2,8.605481684E-2,-6.748676300E-2
1.662480219E1,6.994628906E-2,4.096196592E-2,-7.477760315E-3
1.663496454E1,8.575928211E-2,2.733022347E-2,5.870532990E-2
1.664512690E1,6.925010681E-2,1.251796819E-2,9.781932831E-2
1.665528925E1,3.029662371E-2,7.768571377E-3,8.905506134E-2
1.666545160E1,-9.514033794E-3,1.060981303E-3,6.163215637E-2
1.667561396E1,-3.163850307E-2,-1.141980663E-2,1.101398468E-2
1.668577631E1,-5.361366272E-2,-7.396457717E-3,-1.264762878E-2
1.669593866E1,-4.998725653E-2,-1.012347545E-2,-2.906799316E-3
1.670610102E1,-3.755241632E-2,-1.688187011E-2,1.852035522E-3
1.671626337E1,-2.097797394E-2,-4.030636512E-3,1.831054688E-3
1.672642573E1,2.005696297E-4,6.477716845E-3,4.666900635E-2
1.673658808E1,3.297811747E-2,2.582689747E-2,4.577255249E-2
1.674675043E1,4.453909397E-2,3.700521961E-2,7.419586182E-3
1.675691279E1,2.704960108E-2,7.306985557E-2,1.160707474E-1
1.676707514E1,3.315806389E-4,6.281927228E-2,6.662082672E-2
1.677723749E1,6.608426571E-3,3.880523145E-2,-1.566181183E-1
1.678743037E1,1.398968697E-2,1.435315795E-2,-2.457618713E-1
1.679759272E1,3.657823801E-2,3.291844949E-2,-1.303110123E-1
1.680775507E1,3.393471241E-2,4.104799032E-2,-3.606414795E-2
1.681791742E1,2.923375368E-2,4.016013816E-2,-3.543758392E-2
1.682807978E1,1.974684000E-2,4.163278639E-2,1.728153229E-2
1.683824213E1,-1.357626915E-2,4.671698064E-2,8.079528809E-2
1.684840449E1,-5.067718029E-2,4.090665281E-2,6.524467468E-2
1.685856684E1,-6.297397614E-2,5.314492062E-2,2.886009216E-2
1.686872919E1,-4.711025953E-2,7.186275721E-2,3.316974640E-2
1.687889155E1,-5.855202675E-3,6.910317391E-2,3.498172760E-2
1.688905390E1,3.192126751E-2,7.146640122E-2,2.975654602E-2
1.689921625E1,4.006338120E-2,6.460759044E-2,3.868961334E-2
1.690937861E1,3.844410181E-2,6.254510581E-2,5.685806274E-2
1.691954096E1,3.941339254E-2,7.201342285E-2,5.105686188E-2
1.692970331E1,3.373575211E-2,5.936402828E-2,5.712509155E-4
1.693986567E1,1.696676016E-2,4.664741084E-2,-3.718090057E-2
1.695002802E1,-6.549060345E-3,1.069531217E-2,-2.939319611E-2
1.696019037E1,-2.022427320E-2,-9.965833277E-3,-2.649116516E-2
1.697035273E1,-1.042592525E-2,-3.802150488E-3,-1.188468933E-2
1.698051508E1,-1.061904430E-2,1.926272362E-2,-2.229690552E-3
1.699067744E1,-1.568210125E-2,3.754237294E-2,-9.355545044E-3
1.700083979E1,-1.331216097E-2,4.171258584E-2,-1.154422760E-2
1.701100214E1,-1.815247536E-2,3.422853723E-2,-1.918792725E-3
1.702116450E1,-1.115381718E-2,1.036602631E-2,7.507324219E-3
1.703132685E1,3.077387810E-3,-1.391731203E-3,2.631282806E-2
1.704148920E1,2.683115005E-2,5.650918931E-3,2.353096008E-2
1.705165156E1,2.447247505E-2,1.455169916E-2,4.232406616E-3
1.706181391E1,2.946722507E-2,2.088195458E-2,-2.179718018E-2
1.707197626E1,2.043682337E-2,3.428784013E-2,-3.793430328E-2
1.708213862E1,2.324467897E-2,4.071998224E-2,-3.009319305E-2
1.709230097E1,-2.777576447E-4,4.272586852E-2,-2.006435394E-2
1.710246332E1,-1.401758194E-2,4.020529240E-2,8.699417114E-3
1.711262568E1,-1.335483789E-2,4.483332857E-2,2.036666870E-2
1.712278803E1,-1.020544767E-2,4.665379226E-2,2.242660522E-2
1.713295038E1,-4.864394665E-3,5.267499760E-2,1.730537415E-2
1.714311274E1,-6.802916527E-3,5.358746275E-2,9.945869446E-3
1.715327509E1,5.731344223E-3,4.727002606E-2,-6.741523743E-3
1.716343744E1,1.829200983E-2,4.352092743E-2,-5.150127411E-2
1.717359980E1,1.686215401E-2,3.093406558E-2,-5.995559692E-2
1.718376215E1,2.462244034E-2,3.357315063E-2,2.667427063E-3
1.719392451E1,1.742190123E-2,4.831406102E-2,7.596397400E-2
1.720408686E1,9.956002235E-3,5.546818301E-2,1.006097794E-1
1.721424921E1,-1.752376556E-3,4.985139519E-2,4.454898834E-2
1.722441157E1,-1.283884048E-2,5.109741166E-2,-1.284122467E-2
1.723457392E1,-1.670110226E-2,6.182242930E-2,-1.960182190E-2
1.724473627E1,-2.347326279E-2,4.668912664E-2,4.343032837E-3
1.725489863E1,-3.578531742E-2,3.442470357E-2,-3.852939606E-2
1.726506098E1,-2.088981867E-2,2.558772638E-2,-2.340965271E-1
1.727522333E1,1.732641459E-2,-2.034734935E-3,-2.581319809E-1
1.728538569E1,8.026039600E-2,2.245829627E-2,1.463022232E-1
1.729554804E1,1.143956780E-1,4.129261896E-2,3.721933365E-1
1.730571039E1,4.180246592E-2,4.762955382E-2,1.956501007E-1
1.731587275E1,-6.186449528E-2,1.323345676E-2,4.792213440E-2
1.732603510E1,-8.370053768E-2,-1.974388584E-2,-1.917753220E-1
1.733619745E1,-3.459155560E-2,-2.253390476E-2,-2.924919128E-1
1.734635981E1,2.138912678E-2,-1.994208619E-2,-2.708377838E-1
1.735652216E1,6.876093149E-2,1.912813634E-3,-7.467174530E-2
1.736668452E1,8.613276482E-2,1.921742037E-2,1.510562897E-1
1.737687739E1,5.311888456E-2,4.612200335E-2,2.192630768E-1
1.738703974E1,-1.178306341E-2,7.624101639E-2,1.919260025E-1
1.739720209E1,-7.484048605E-2,9.092485905E-2,1.155147552E-1
1.740736445E1,-9.377557039E-2,1.086979657E-1,1.911258698E-2
1.741752680E1,-7.227253914E-2,1.174852401E-1,-6.852436066E-2
1.742768915E1,-4.740804434E-2,1.120936275E-1,-1.311864853E-1
1.743785151E1,1.824980974E-2,8.659125119E-2,-1.196241379E-1
1.744801386E1,5.590701103E-2,7.635864615E-2,-5.869007111E-2
1.745817621E1,7.364714146E-2,5.149262771E-2,2.957534790E-2
1.746833857E1,6.766873598E-2,2.717673033E-2,1.044654846E-1
1.747850092E1,5.583453178E-2,2.089921571E-2,9.070968628E-2
1.748866328E1,9.934902191E-3,6.057457998E-3,5.607891083E-2
1.749882563E1,-2.510958910E-2,-5.157085136E-3,3.386211395E-2
1.750898798E1,-4.092323780E-2,-2.403921075E-2,3.336524963E-2
1.751915034E1,-5.227553844E-2,-4.034367204E-2,3.047466278E-2
1.752931269E1,-4.737210274E-2,-4.431908578E-2,3.932666779E-2
1.753947504E1,-4.058200121E-2,-2.200814709E-2,3.853511810E-2
1.754963740E1,-5.664944649E-3,-7.214247715E-3,4.957199097E-2
1.755979975E1,2.447795868E-2,2.357218973E-2,4.391956329E-2
1.756996210E1,4.815644026E-2,5.101107061E-2,-8.934020996E-3
1.758012446E1,6.018501520E-2,6.104251370E-2,-1.546764374E-2
1.759028681E1,4.293781519E-2,7.764920592E-2,1.384506226E-1
1.760044916E1,2.609276772E-2,4.384997115E-2,8.147525787E-2
1.761061152E1,-3.083944321E-4,2.055714652E-2,-1.678647995E-1
1.762077387E1,-9.111344814E-3,1.646726625E-3,-1.882190704E-1
1.763093622E1,-1.511144638E-2,3.923891112E-2,-9.521389008E-2
1.764109858E1,-1.959007978E-2,5.141285434E-2,-7.712268829E-2
1.765126093E1,-3.849512339E-2,6.380701810E-2,-7.103347778E-2
1.766142328E1,-2.699077129E-2,6.620657444E-2,-3.677845001E-2
1.767158564E1,3.070831299E-3,6.315445155E-2,1.103591919E-2
1.768174799E1,2.364599705E-2,5.409842730E-2,4.156208038E-2
1.769191034E1,3.487616777E-2,5.614607781E-2,6.923484802E-2
1.770207270E1,6.260609627E-2,5.048949271E-2,8.939170837E-2
1.771223505E1,7.564544678E-2,4.695495963E-2,8.313179016E-2
1.772239741E1,6.449413300E-2,5.052003264E-2,8.166694641E-2
1.773255976E1,4.138332605E-2,5.174012110E-2,7.084846497E-2
1.774272211E1,1.124083996E-2,4.328479990E-2,6.719684601E-2
1.775288447E1,-1.142960787E-2,4.636891931E-2,6.359291077E-2
1.776304682E1,-3.105843067E-2,3.464820236E-2,3.323554993E-3
1.777320917E1,-2.385067940E-2,2.547039837E-2,-7.007884979E-2
1.778337153E1,-9.304046631E-3,1.242548972E-2,-8.772850037E-2
1.779353388E1,-4.112720490E-6,2.904687077E-3,-5.314636230E-2
1.780372675E1,-1.274067163E-2,1.063458622E-2,-2.889633179E-4
1.781388910E1,-4.520177841E-3,4.014626145E-3,2.554225922E-2
1.782405146E1,-3.643989563E-3,-1.003890857E-2,1.551532745E-2
1.783421381E1,-7.284283638E-3,4.130024463E-3,-1.323032379E-2
1.784437616E1,-7.710456848E-4,-9.219087660E-4,-6.030178070E-2
1.785453852E1,6.059288979E-3,3.997661173E-3,-6.400203705E-2
1.786470087E1,8.859038353E-4,7.090933621E-3,-2.277088165E-2
1.787486323E1,-1.905202866E-3,3.552816808E-3,1.064872742E-2
1.788502558E1,5.129694939E-3,9.846664965E-3,1.526260376E-2
1.789518793E1,-6.569147110E-3,1.807787269E-2,5.609512329E-3
1.790535029E1,-3.776967525E-3,1.873277128E-2,7.915496826E-4
1.791551264E1,-1.508712769E-2,2.626083046E-2,-1.106262207E-2
1.792567499E1,-3.111171722E-2,4.525828362E-2,-4.861259460E-2
1.793583735E1,-3.302323818E-2,4.517571628E-2,-5.248641968E-2
1.794599970E1,-1.870393753E-2,3.577121347E-2,-1.382255554E-2
1.795616205E1,-1.180171967E-4,3.398305178E-2,7.651329041E-3
1.796632441E1,3.961825371E-2,4.877343774E-2,5.241966248E-2
1.797648676E1,6.001949310E-2,4.390487075E-2,6.336688995E-2
1.798664912E1,5.456960201E-2,5.293828994E-2,5.283927917E-2
1.799681147E1,4.024595022E-2,6.849432737E-2,3.073692322E-2
1.800697382E1,1.237744093E-2,6.245001405E-2,-1.930141449E-2
1.801713618E1,-1.018238068E-2,5.440054089E-2,-4.954147339E-2
1.802729853E1,-2.525764704E-2,4.472144693E-2,-6.745624542E-2
1.803746088E1,-4.251474142E-2,1.943288743E-2,-7.084941864E-2
1.804762324E1,-2.680879831E-2,2.620056272E-2,8.519172668E-3
1.805778559E1,-2.877473831E-3,1.631680876E-2,8.874607086E-2
1.806794794E1,1.552152634E-2,3.399621695E-2,9.426403046E-2
1.807811030E1,1.507401466E-2,4.336930066E-2,1.941394806E-2
1.808827265E1,1.017665863E-2,4.280930758E-2,-2.094268799E-2
1.809843500E1,2.477169037E-3,3.751111776E-2,3.854370117E-2
1.810859736E1,-6.124377251E-3,2.037058771E-2,6.133460999E-2
1.811875971E1,-3.100258112E-2,5.852125585E-3,-8.658409119E-2
1.812892206E1,-1.241159439E-2,6.954699755E-3,-3.497200012E-1
1.813908442E1,2.735149860E-2,-1.487156749E-2,-3.263921738E-1
1.814924677E1,8.757692575E-2,1.724198461E-3,2.327766418E-1
1.815940912E1,1.201969981E-1,-6.965801120E-3,2.705030441E-1
1.816957148E1,3.586900234E-2,-1.125714183E-2,1.290016174E-1
1.817973383E1,-5.151218176E-2,-3.060165048E-2,1.784515381E-2
1.818989619E1,-7.810616493E-2,-3.947316110E-2,-1.361436844E-1
1.820005854E1,-5.217081308E-2,-1.450155675E-2,-2.140893936E-1
1.821025141E1,2.968907356E-4,-7.007047534E-3,-1.746788025E-1
1.822041376E1,5.183148384E-2,2.528175712E-2,6.729793549E-2
1.823057612E1,7.624500990E-2,7.264351845E-2,2.340364456E-1
1.824073847E1,5.358570814E-2,1.100464761E-1,1.686515808E-1
1.825087031E1,-1.561081409E-2,1.336695999E-1,-8.924484253E-3
1.826103266E1,-5.838799477E-2,1.410868019E-1,-1.030530930E-1
1.827119501E1,-6.652987003E-2,1.461326182E-1,-1.036109924E-1
1.828135737E1,-3.613179922E-2,1.307757199E-1,-7.344341278E-2
1.829151972E1,-5.384862423E-3,9.214057028E-2,-2.269649506E-2
1.830168207E1,3.115504980E-2,5.780346692E-2,2.959251404E-2
1.831184443E1,5.317252874E-2,1.395465434E-2,6.208705902E-2
1.832200678E1,4.739671946E-2,-1.225440204E-2,1.011533737E-1
1.833216913E1,2.652382851E-2,-1.243765652E-2,9.945297241E-2
1.834233149E1,2.908706665E-4,-1.034832001E-2,5.998039246E-2
1.835249384E1,-2.007442713E-2,-9.705796838E-3,2.597618103E-2
1.836265620E1,-3.542935848E-2,-2.356049418E-2,6.693840027E-3
1.837281855E1,-2.271139622E-2,-2.024568617E-2,4.265785217E-3
1.838298090E1,-2.272605896E-2,-3.519426286E-2,2.082157135E-2
1.839317377E1,-1.858979464E-2,-4.001761973E-2,5.348205566E-2
1.840333613E1,-2.415305376E-2,-3.555013239E-2,5.964088440E-2
1.841349848E1,-1.518875360E-2,-1.546804607E-2,5.623531342E-2
1.842366083E1,5.789399147E-3,3.277182579E-3,7.844924927E-3
1.843382319E1,3.373306990E-2,2.560210228E-2,-2.279186249E-2
1.844398554E1,2.902042866E-2,6.828831136E-2,1.262454987E-1
1.845414789E1,3.343337774E-2,6.970423460E-2,3.856849670E-2
1.846431025E1,2.574402094E-2,2.211357653E-2,-1.630239487E-1
1.847447260E1,3.549820185E-2,5.345433950E-3,-1.813697815E-1
1.848463495E1,5.375802517E-2,2.557909489E-2,-1.169033051E-1
1.849479731E1,4.822146893E-2,5.318813026E-2,-4.629993439E-2
1.850495966E1,2.402782440E-2,5.160315335E-2,1.781463623E-3
1.851512202E1,-1.140695810E-2,4.202367365E-2,4.154205322E-3
1.852528437E1,-2.487623692E-2,5.051945150E-2,2.538967133E-2
1.853544672E1,-3.837358952E-2,5.327655375E-2,4.387855530E-2
1.854560908E1,-3.961008787E-2,7.194541395E-2,4.079437256E-2
1.855577143E1,1.603126526E-3,9.251615405E-2,2.358818054E-2
1.856593378E1,5.108565092E-2,7.928302884E-2,2.311897278E-2
1.857609614E1,6.144684553E-2,6.159798801E-2,2.731895447E-2
1.858625849E1,5.724900961E-2,6.277437508E-2,3.619289398E-2
1.859642084E1,3.646528721E-2,4.918037355E-2,5.201339722E-2
1.860658320E1,2.093255520E-2,3.239743412E-2,4.385948181E-2
1.861674555E1,-5.655586720E-3,1.979137957E-2,-9.072303772E-3
1.862690790E1,-1.448529959E-2,4.740387201E-3,-6.093215942E-2
1.863707026E1,-2.529001236E-2,-4.740059376E-3,-7.883358002E-2
1.864723261E1,-7.887899876E-3,-3.873705864E-3,-5.626964569E-2
1.865739496E1,-2.950727940E-3,-2.517506480E-3,-5.748748779E-3
1.866755732E1,-3.046333790E-3,3.690391779E-3,3.676986694E-2
1.867771967E1,-7.994592190E-3,1.411053538E-2,1.469135284E-2
1.868788202E1,-1.028251648E-2,9.725540876E-3,-2.344894409E-2
1.869807490E1,-2.396005392E-2,-3.968238831E-3,-5.375385284E-2
1.870823725E1,-2.783155441E-2,-1.230260730E-2,-5.998611450E-2
1.871836909E1,-1.726984978E-2,-5.644038320E-3,-3.524494171E-2
1.872856196E1,1.436865330E-2,8.418813348E-3,-6.338119507E-3
1.873869379E1,2.411282063E-2,2.465078235E-2,3.276824951E-3
1.874888666E1,2.905076742E-2,3.800375015E-2,2.214908600E-2
1.875904902E1,3.376847506E-2,4.117521644E-2,3.598213196E-2
1.876921137E1,1.511865854E-2,4.608200490E-2,4.630088806E-3
1.877937372E1,1.604998112E-2,2.927617729E-2,-3.797721863E-2
1.878953608E1,1.012051105E-2,4.365003854E-2,-6.796360016E-2
1.879969843E1,-2.965331078E-4,2.497543395E-2,-6.433582306E-2
1.880986078E1,-1.065176725E-2,1.907908916E-2,-3.475475311E-2
1.882002314E1,-1.657336950E-2,2.989041060E-2,2.742671967E-2
1.883018549E1,2.931952477E-4,5.908785015E-2,9.308147430E-2
1.884034784E1,-1.649767160E-2,6.563135982E-2,8.431053162E-2
1.885051020E1,-6.684601307E-3,7.606566697E-2,2.139377594E-2
1.886067255E1,3.233134747E-3,8.163046837E-2,-4.919052124E-3
1.887083491E1,7.453560829E-4,8.020975441E-2,2.112007141E-2
1.888099726E1,-6.918728352E-3,6.284232438E-2,1.708030701E-3
1.889115961E1,-2.835392952E-2,5.137325823E-2,-1.665096283E-1
1.890132197E1,-2.986437082E-2,2.579969168E-2,-3.760414124E-1
1.891148432E1,2.914053202E-2,1.360657811E-2,-1.964406967E-1
1.892164667E1,9.743505716E-2,1.517470181E-2,2.585048676E-1
1.893180903E1,7.799774408E-2,3.349675611E-2,3.715229034E-1
1.894197138E1,-1.711797714E-2,2.177409083E-2,1.381387711E-1
1.895213373E1,-8.810412884E-2,-2.116263658E-2,-5.331897736E-2
1.896229609E1,-8.233523369E-2,-3.803262487E-2,-2.037239075E-1
1.897245844E1,-4.004836082E-2,-4.800806567E-2,-2.427711487E-1
1.898262079E1,6.907343864E-3,-4.324928671E-2,-1.912126541E-1
1.899278315E1,5.978894234E-2,-2.719912678E-2,1.785659790E-2
1.900294550E1,8.068329096E-2,1.658120751E-2,1.923780441E-1
1.901310786E1,5.676525831E-2,6.408311427E-2,2.056369781E-1
1.902327021E1,-6.047904491E-3,9.836582094E-2,1.148176193E-1
1.903343256E1,-6.515651941E-2,1.277208030E-1,2.324867249E-2
1.904359492E1,-8.078438044E-2,1.163421199E-1,-2.665138245E-2
1.905375727E1,-6.150835752E-2,1.066416502E-1,-5.206871033E-2
1.906391962E1,-1.318353415E-2,1.066973954E-1,-7.722568512E-2
1.907408198E1,2.384078503E-2,9.295209497E-2,-7.359123230E-2
1.908424433E1,6.439352036E-2,6.734873354E-2,-3.700637817E-2
1.909440668E1,6.878322363E-2,3.818257898E-2,1.791095734E-2
1.910456904E1,4.992610216E-2,1.832167059E-2,6.953907013E-2
1.911473139E1,2.048635483E-2,1.141573302E-2,8.490276337E-2
1.912489374E1,4.190206528E-3,1.691875234E-2,9.061145782E-2
1.913505610E1,4.601478577E-4,4.166813567E-3,7.021808624E-2
1.914521845E1,-2.193260193E-2,2.644803375E-3,2.420139313E-2
1.915538080E1,-2.992659807E-2,-3.393685911E-3,-1.627063751E-2
1.916554316E1,-2.198958397E-2,-8.793205023E-3,-2.542209625E-2
1.917570551E1,-2.668327093E-2,8.744006045E-4,-1.561832428E-2
1.918586787E1,-1.475894451E-2,1.327253506E-2,5.920410156E-3
1.919603022E1,1.358830929E-2,2.319183201E-2,3.413391113E-2
1.920619257E1,3.216958046E-2,3.711222112E-2,-2.081012726E-2
1.921635492E1,2.633333206E-3,4.763990268E-2,1.025924683E-1
1.922651728E1,-1.283341646E-2,6.389012933E-2,1.359996796E-1
1.923667963E1,-9.873926640E-3,4.174511135E-2,-4.125308990E-2
1.924684199E1,1.395374537E-2,3.048298508E-2,-2.033338547E-1
1.925700434E1,4.443353415E-2,4.043532535E-2,-2.090501785E-1
1.926716669E1,4.728728533E-2,4.049460217E-2,-1.038227081E-1
1.927732905E1,3.996890783E-2,4.669188708E-2,-4.771137238E-2
1.928749140E1,3.483837843E-2,2.974960022E-2,-4.296302795E-3
1.929765375E1,-1.329565048E-2,2.677248791E-2,9.023666382E-2
1.930781611E1,-4.851740599E-2,3.902385384E-2,9.570693970E-2
1.931800898E1,-6.578171253E-2,4.962918162E-2,5.160713196E-2
1.932817133E1,-3.790062666E-2,6.623239070E-2,1.302051544E-2
1.933833369E1,-6.060421467E-3,8.030661941E-2,-3.687858582E-3
1.934849604E1,2.734893560E-2,7.108511776E-2,-1.270294189E-3
1.935865839E1,4.301381111E-2,6.271480024E-2,2.240085602E-2
1.936882074E1,3.413838148E-2,5.490871519E-2,6.685447693E-2
1.937898310E1,1.813894510E-2,4.897646606E-2,1.057758331E-1
1.938914545E1,5.461156368E-3,3.978599235E-2,5.420970917E-2
1.939930781E1,-1.074796915E-2,3.697100282E-2,-1.278686523E-2
1.940947016E1,-1.945048571E-2,1.507111266E-2,-2.659702301E-2
1.941963251E1,7.111191750E-3,2.209293097E-2,-2.373313904E-2
1.942979487E1,-2.627134323E-3,1.774361730E-2,-2.811717987E-2
1.943995722E1,1.575827599E-3,1.426691934E-2,-2.293968201E-2
1.945011957E1,-1.102852821E-2,2.800241858E-2,-1.554679871E-2
1.946028193E1,-2.199828625E-3,2.543831617E-2,-2.010440826E-2
1.947044428E1,4.430651665E-3,1.384708285E-2,-1.504325867E-2
1.948060663E1,4.065930843E-3,1.444568858E-2,1.590919495E-2
1.949076899E1,1.363480091E-2,7.918864489E-3,2.985382080E-2
1.950093134E1,6.958663464E-3,1.531439647E-2,8.139610291E-3
1.951109370E1,-4.220485687E-3,1.053063199E-2,3.348350525E-3
1.952125605E1,-8.142292500E-3,1.506311074E-2,5.713462830E-3
1.953141840E1,-1.918983459E-2,2.635806426E-2,-1.460075378E-3
1.954158076E1,-1.829898357E-2,4.233158380E-2,-1.560497284E-2
1.955174311E1,-5.675554276E-3,4.155021533E-2,-3.180122375E-2
1.956190546E1,6.465911865E-3,5.283934623E-2,-2.648544312E-2
1.957206782E1,2.061057091E-2,4.528763145E-2,7.063865662E-3
1.958223017E1,1.794248819E-2,3.557216376E-2,9.226799011E-3
1.959239252E1,3.920692205E-2,4.477849603E-2,2.089309692E-2
1.960255488E1,2.485036850E-2,3.221549466E-2,1.583766937E-2
1.961271723E1,6.443977356E-3,3.854066879E-2,8.542060852E-3
1.962287958E1,-6.600260735E-3,4.231838137E-2,-1.280593872E-2
1.963304194E1,-1.685464382E-2,3.907661512E-2,-3.610420227E-2
1.964320429E1,3.430664539E-3,3.388117626E-2,1.188850403E-2
1.965336664E1,1.081299782E-2,5.013987795E-2,7.315540314E-2
1.966352900E1,1.786220074E-2,5.649013817E-2,5.292129517E-2
1.967369135E1,1.815038919E-2,5.536167324E-2,-7.052421570E-3
1.968385370E1,6.752550602E-3,5.918174982E-2,-3.048038483E-2
1.969401606E1,-1.894038916E-2,4.665707052E-2,3.161430359E-3
1.970417841E1,-2.148842812E-2,4.859940708E-2,2.667236328E-2
1.971437128E1,-3.392738104E-2,4.358694330E-2,-8.050346375E-2
1.972453364E1,-3.482145071E-2,2.326449379E-2,-2.657651901E-1
1.973469599E1,1.563018560E-2,1.010422781E-2,-2.016124725E-1
1.974485834E1,7.724595070E-2,3.175139055E-2,2.724132538E-1
1.975502070E1,1.060401201E-1,5.381716788E-2,3.212871552E-1
1.976518305E1,3.167492151E-2,3.517781571E-2,1.764822006E-1
1.977534540E1,-5.806392431E-2,9.649109095E-3,-2.300739288E-2
1.978550776E1,-7.469308376E-2,-8.757669479E-3,-2.306013107E-1
1.979567011E1,-4.693585634E-2,-2.480748296E-2,-2.929086685E-1
1.980583246E1,8.712291718E-3,-1.835555211E-2,-2.405786514E-1
1.981599482E1,4.875826836E-2,9.317684919E-3,-3.791046143E-2
1.982615717E1,4.690414667E-2,3.195466474E-2,1.587295532E-1
1.983631952E1,1.387012005E-2,6.623506546E-2,2.172822952E-1
1.984648188E1,-3.233897686E-2,8.705262840E-2,2.017087936E-1
1.985664423E1,-6.273829937E-2,1.022668704E-1,1.226158142E-1
1.986680659E1,-6.590580940E-2,1.066336408E-1,1.424312592E-2
1.987696894E1,-4.317784309E-2,9.547086805E-2,-6.391239166E-2
1.988713129E1,-4.428029060E-4,9.670807421E-2,-1.148757935E-1
1.989729365E1,3.585708141E-2,8.008462191E-2,-1.201601028E-1
1.990745600E1,6.150782108E-2,7.365897298E-2,-6.870937347E-2
1.991761835E1,5.590075254E-2,4.278453812E-2,3.153991699E-2
1.992778071E1,4.368913174E-2,2.159468271E-2,9.935283661E-2
1.993794306E1,1.848244667E-2,1.815196499E-2,9.277534485E-2
1.994810541E1,-5.272746086E-3,-3.556366079E-3,5.340480804E-2
1.995826777E1,-2.367293835E-2,-2.162983641E-2,2.183914185E-2
1.996843012E1,-3.267800808E-2,-3.058156557E-2,4.869461060E-3
1.997859247E1,-4.469829798E-2,-3.226013109E-2,-7.054328918E-3
1.998875483E1,-5.257403851E-2,-2.631500363E-2,1.658153534E-2
1.999891718E1,-3.236830235E-2,-1.525337808E-2,3.982925415E-2
2.000907953E1,-3.009319305E-3,1.705656387E-2,4.842185974E-2
2.001924189E1,2.433967590E-2,2.478395775E-2,5.456447601E-2
2.002940424E1,4.260957241E-2,3.153894097E-2,-1.740360260E-2
2.003956660E1,4.695355892E-2,4.474906251E-2,2.339267731E-2
2.004972895E1,7.803142071E-3,5.252089351E-2,1.386766434E-1
2.005989130E1,-1.615524292E-3,3.842530400E-2,-1.758098602E-2
2.007005366E1,4.830360413E-4,2.314021997E-2,-2.107391357E-1
2.008021601E1,2.364438772E-2,1.466283761E-2,-1.525192261E-1
2.009037836E1,4.722160101E-2,3.869299591E-2,-7.208919525E-2
2.010054072E1,4.651916027E-2,4.181919992E-2,-5.198097229E-2
2.011070307E1,3.611034155E-2,5.894833803E-2,-6.124496460E-3
2.012086542E1,2.050852776E-2,6.798683107E-2,7.196712494E-2
2.013102778E1,-1.449048519E-3,6.831576675E-2,7.310104370E-2
2.014119013E1,-2.471923828E-2,6.294392794E-2,2.228641510E-2
2.015135248E1,-1.421874762E-2,5.731451511E-2,-3.964424133E-3
2.016151484E1,9.873926640E-3,5.905789137E-2,1.034736633E-2
2.017167719E1,3.288805485E-2,6.609905511E-2,3.146362305E-2
2.018183954E1,3.618472815E-2,7.582451403E-2,4.033184052E-2
2.019200190E1,3.675895929E-2,6.186861917E-2,4.669857025E-2
2.020216425E1,1.837646961E-2,4.311506823E-2,6.240272522E-2
2.021232660E1,1.212275028E-2,4.039067030E-2,4.704761505E-2
2.022248896E1,-1.003623009E-3,2.484807000E-2,-3.585815430E-3
2.023265131E1,-2.513575554E-2,-1.807883382E-4,-5.319595337E-2
2.024281366E1,-2.740287781E-2,1.095344126E-2,-6.646537781E-2
2.025297602E1,-1.563924551E-2,8.441872895E-3,-4.401969910E-2
2.026313837E1,-2.164065838E-3,1.132635027E-2,-3.190994263E-3
2.027330073E1,-7.954418659E-3,9.811855853E-3,3.226566315E-2
2.028349360E1,-1.602733135E-2,1.785722375E-2,2.450180054E-2
